time_ms,ir_r,ir_l,tf_r,tf_l,tf_front,throttle_l,throttle_r,steering,gyro_z,accel_x,accel_y
  1108,  157,  305,  571,  112,  1000,  9999,  9999,  2,  277,  177, -1320
  1198,  157,  305,  572,  60,  1000,  7999,  9999,  20, -188,  378, -1020
  1280,  162,  305,  572,  148,  1000,  9999,  9999,  0, -156, -20, -1081
  1371,  161,  305,  571,  96,  1000,  7999,  9999,  18,  121,  215, -972
  1453,  161,  305,  569,  125,  1000,  9999,  9999,  6,  45,  275, -1062
  1543,  161,  305,  571,  92,  1000,  9999,  9999,  14,  27,  275, -1060
  1629,  161,  305,  569,  94,  1000,  9999,  9999,  11,  48,  299, -1040
  1716,  160,  305,  571,  126,  1000,  9999,  9999,  7,  41,  251, -1082
  1803,  162,  305,  571,  60,  1000,  7999,  9999,  19,  47,  248, -1076
  1888,  161,  305,  571,  148,  1000,  9999,  9999, -2,  49,  272, -1087
  1971,  162,  305,  570,  168,  1000,  9999,  9999,  8,  39,  245, -1061
  2058,  161,  305,  570,  52,  1000,  7999,  9999,  23,  59,  216, -1075
  2147,  161,  305,  570,  121,  1000,  9999,  9999,  0,  41,  252, -1030
  2230,  162,  305,  570,  120,  1000,  9999,  9999,  11,  34,  292, -1055
  2321,  162,  305,  569,  74,  1000,  7999,  9999,  15,  52,  268, -1041
  2408,  162,  305,  569,  66,  1000,  9999,  9999,  11,  38,  256, -1055
  2496,  162,  305,  568,  62,  1000,  9999,  9999,  12,  45,  294, -1101
  2584,  160,  305,  569,  91,  1000,  9999,  9999,  8,  51,  272, -1082
  2673,  161,  305,  571,  166,  1000,  9999,  9999,  3,  45,  249, -1035
  2761,  161,  305,  572,  84,  1000,  7999,  9999,  19,  41,  248, -1017
  2842,  161,  305,  570,  106,  1000,  9999,  9999,  7,  38,  238, -1053
  2929,  161,  305,  570,  101,  1000,  9999,  9999,  10,  46,  263, -1037
  3020,  161,  305,  569,  58,  1000,  7999,  9999,  15,  45,  228, -1095
  3104,  162,  305,  572,  134,  1000,  9999,  9999,  2,  50,  273, -1093
  3189,  161,  305,  570,  147,  1000,  9999,  9999,  9,  55,  282, -1063
  3271,  162,  305,  571,  119,  1000,  9999,  9999,  12,  47,  283, -1053
  3352,  161,  305,  570,  163,  1000,  9999,  9999,  4,  42,  285, -1064
  3443,  157,  305,  571,  112,  1000,  9999,  9999,  14,  44,  252, -1105
  3525,  161,  305,  570,  131,  1000,  9999,  9999,  8,  39,  299, -1008
  3611,  161,  305,  571,  136,  1000,  9999,  9999,  9,  55,  261, -1050
  3698,  160,  305,  570,  100,  1000,  9999,  9999,  13,  47,  227, -1081
  3776,  161,  305,  570,  209,  1000,  9999,  9999, -2,  35,  237, -1044
  3862,  160,  305,  570,  144,  1000,  9999,  9999,  14,  45,  259, -1047
  3946,  160,  305,  569,  141,  1000,  9999,  9999,  9,  53,  226, -1060
  4036,  161,  305,  572,  71,  1000,  7999,  9999,  18,  48,  228, -1054
  4121,  162,  305,  570,  83,  1000,  9999,  9999,  8,  45,  261, -1064
  4209,  161,  305,  571,  111,  1000,  9999,  9999,  8,  38,  307, -1075
  4290,  161,  305,  570,  165,  1000,  9999,  9999,  4,  36,  285, -1056
  4376,  162,  305,  571,  106,  1000,  7999,  9999,  16,  47,  261, -1104
  4462,  162,  305,  568,  133,  1000,  9999,  9999,  6,  54,  281, -1060
  4545,  162,  305,  570,  140,  1000,  9999,  9999,  9,  47,  217, -1075
  4631,  161,  305,  569,  153,  1000,  9999,  9999,  8,  57,  279, -1039
  4710,  162,  305,  570,  202,  1000,  9999,  9999,  5,  50,  230, -1035
  4796,  161,  305,  569,  79,  1000,  7999,  9999,  22,  49,  257, -1078
  4882,  162,  305,  569,  86,  1000,  9999,  9999,  9,  36,  301, -1082
  4968,  160,  305,  569,  134,  1000,  9999,  9999,  5,  48,  263, -1092
  5047,  158,  305,  569,  223,  1000,  9999,  9999,  2,  52,  266, -1033
  5133,  161,  305,  569,  104,  1000,  7999,  9999,  21,  49,  314, -1104
  5216,  162,  305,  570,  161,  1000,  9999,  9999,  2,  53,  272, -1047
  5303,  161,  305,  571,  159,  1000,  9999,  9999,  10,  41,  274, -1055
  5384,  158,  305,  571,  156,  1000,  9999,  9999,  8,  41,  234, -1081
  5472,  160,  305,  569,  130,  1000,  9999,  9999,  12,  40,  234, -1055
  5553,  162,  305,  570,  143,  1000,  9999,  9999,  9,  32,  287, -986
  5643,  157,  305,  569,  133,  1000,  9999,  9999,  9,  28,  191, -1113
  5733,  161,  305,  569,  93,  1000,  9999,  9999,  14,  39,  230, -1043
  5816,  161,  305,  569,  122,  1000,  9999,  9999,  6,  45,  325, -1073
  5900,  161,  305,  570,  213,  1000,  9999,  9999,  1,  53,  231, -1030
  5988,  161,  305,  570,  101,  1000,  7999,  9999,  21,  55,  225, -1110
  6069,  161,  305,  568,  184,  1000,  9999,  9999,  0,  35,  214, -1078
  6154,  162,  305,  568,  133,  1000,  7999,  9999,  15,  43,  296, -1120
  6239,  162,  305,  569,  18,  1000,  7999,  9999,  24,  54,  234, -1047
  6327,  160,  305,  570,  158,  1000,  9999,  9999, -8,  44,  265, -1096
  6413,  161,  305,  569,  146,  1000,  9999,  9999,  12,  31,  264, -1067
  6498,  162,  305,  568,  56,  1000,  7999,  9999,  21,  47,  317, -1057
  6583,  161,  305,  569,  222,  1000,  9999,  9999, -8,  48,  237, -1069
  6664,  157,  305,  571,  161,  1000,  9999,  9999,  14,  62,  201, -1081
  6750,  161,  305,  570,  102,  1000,  7999,  9999,  15,  44,  299, -1038
  6836,  161,  305,  569,  47,  1000,  7999,  9999,  16,  40,  228, -1055
  6919,  161,  305,  570,  183,  1000,  9999,  9999, -6,  42,  260, -1101
  7005,  162,  305,  569,  48,  1000,  7999,  9999,  28,  42,  264, -1041
  7095,  158,  305,  569,  108,  1000,  9999,  9999,  1,  38,  291, -1066
  7182,  161,  305,  568,  102,  1000,  9999,  9999,  13,  44,  261, -1074
  7261,  162,  305,  569,  183,  1000,  9999,  9999,  2,  52,  289, -1091
  7342,  161,  305,  570,  140,  1000,  9999,  9999,  14,  51,  309, -1071
  7434,  161,  305,  568,  133,  1000,  9999,  9999,  9,  53,  260, -1075
  7515,  162,  305,  568,  114,  1000,  9999,  9999,  11,  29,  340, -1103
  7601,  162,  305,  568,  126,  1000,  9999,  9999,  9,  44,  322, -1063
  7691,  162,  305,  568,  85,  1000,  9999,  9999,  14,  47,  258, -1055
  7774,  161,  305,  569,  151,  1000,  9999,  9999,  2,  44,  246, -1113
  7856,  162,  305,  568,  129,  1000,  9999,  9999,  12,  54,  229, -1076
  7942,  161,  305,  569,  187,  1000,  9999,  9999,  3,  76,  311, -1086
  8033,  161,  305,  568,  79,  1000,  7999,  9999,  22,  59,  228, -1148
  8117,  162,  305,  569,  131,  1000,  9999,  9999,  2,  64,  276, -1014
  8197,  161,  305,  569,  182,  1000,  9999,  9999,  6,  57,  262, -1048
  8284,  160,  305,  569,  129,  1000,  9999,  9999,  14,  41,  243, -1083
  8371,  162,  305,  568,  106,  1000,  9999,  9999,  12,  53,  244, -1062
  8460,  162,  305,  568,  62,  1000,  7999,  9999,  16,  34,  282, -1013
  8548,  162,  305,  569,  100,  1000,  9999,  9999,  6,  43,  266, -1075
  8633,  161,  305,  568,  135,  1000,  9999,  9999,  7,  40,  165, -1063
  8719,  161,  305,  568,  130,  1000,  9999,  9999,  9,  56,  208, -1060
  8802,  160,  305,  569,  139,  1000,  9999,  9999,  9,  53,  285, -1058
  8885,  162,  305,  568,  126,  1000,  9999,  9999,  11,  41,  216, -1031
  8976,  161,  305,  568,  79,  1000,  7999,  9999,  15,  43,  212, -1021
  9060,  162,  305,  569,  129,  1000,  9999,  9999,  3,  35,  321, -1057
  9144,  161,  305,  568,  110,  1000,  9999,  9999,  12,  50,  267, -1026
  9235,  161,  305,  569,  60,  1000,  7999,  9999,  16,  43,  291, -1088
  9311,  162,  305,  568,  158,  1000,  9999,  9999, -2,  48,  275, -1046
  9396,  161,  305,  569,  192,  1000,  9999,  9999,  7,  50,  246, -1094
  9481,  161,  305,  569,  124,  1000,  7999,  9999,  15,  59,  317, -1052
  9570,  161,  305,  569,  83,  1000,  9999,  9999,  13,  46,  225, -1092
  9654,  159,  305,  568,  161,  1000,  9999,  9999,  1,  29,  223, -1070
  9740,  161,  305,  569,  121,  1000,  7999,  9999,  15,  42,  310, -1047
  9825,  161,  305,  568,  123,  1000,  9999,  9999,  10,  46,  290, -1071
  9916,  161,  305,  568,  125,  1000,  9999,  9999,  10,  40,  290, -1079
  9999,  162,  305,  568,  107,  1000,  9999,  9999,  11,  44,  243, -1109
  10086,  162,  305,  567,  138,  1000,  9999,  9999,  7,  31,  242, -1024
  10170,  162,  305,  567,  22,  1000,  7999,  9999,  26,  46,  309, -1051
  10262,  162,  305,  569,  76,  1000,  9999,  9999,  3,  47,  255, -1124
  10345,  162,  305,  568,  176,  1000,  9999,  9999,  1,  29,  302, -1080
  10425,  162,  305,  569,  151,  1000,  9999,  9999,  12,  44,  301, -1047
  10514,  162,  305,  568,  85,  1000,  7999,  9999,  17,  51,  267, -1087
  10600,  160,  305,  568,  161,  1000,  9999,  9999,  0,  49,  228, -1047
  10681,  161,  305,  569,  180,  1000,  9999,  9999,  8,  57,  251, -1092
  10769,  160,  305,  569,  121,  1000,  7999,  9999,  15,  52,  251, -1056
  10855,  160,  305,  570,  88,  1000,  9999,  9999,  13,  49,  239, -1060
  10935,  162,  305,  568,  137,  1000,  9999,  9999,  5,  48,  219, -1056
  11024,  162,  305,  568,  149,  1000,  9999,  9999,  8,  39,  231, -1078
  11109,  161,  305,  568,  73,  1000,  7999,  9999,  19,  28,  299, -1133
  11200,  162,  305,  568,  66,  1000,  9999,  9999,  11,  53,  282, -1099
  11285,  161,  305,  568,  133,  1000,  9999,  9999,  3,  53,  205, -1078
  11369,  162,  305,  569,  125,  1000,  9999,  9999,  12,  57,  237, -1100
  11458,  161,  305,  570,  127,  1000,  9999,  9999,  9,  46,  260, -1105
  11540,  161,  305,  569,  150,  1000,  9999,  9999,  8,  54,  259, -1068
  11627,  161,  305,  568,  56,  1000,  7999,  9999,  22,  38,  283, -1082
  11718,  160,  305,  568,  59,  1000,  9999,  9999,  9,  56,  237, -1044
  11802,  161,  305,  568,  95,  1000,  9999,  9999,  8,  38,  267, -1033
  11885,  161,  305,  569,  189,  1000,  9999,  9999,  1,  31,  246, -1119
  11968,  160,  305,  569,  135,  1000,  7999,  9999,  15,  56,  316, -1055
  12054,  162,  305,  569,  135,  1000,  9999,  9999,  8,  40,  320, -1031
  12137,  160,  305,  568,  164,  1000,  9999,  9999,  6,  44,  179, -1123
  12224,  160,  305,  569,  108,  1000,  7999,  9999,  15,  51,  276, -1025
  12305,  162,  305,  569,  134,  1000,  9999,  9999,  6,  36,  281, -1008
  12395,  161,  305,  568,  127,  1000,  9999,  9999,  9,  40,  243, -1077
  12487,  161,  305,  568,  88,  1000,  9999,  9999,  14,  37,  292, -1062
  12568,  157,  305,  568,  104,  1000,  9999,  9999,  6,  48,  316, -1114
  12658,  161,  305,  569,  96,  1000,  9999,  9999,  13,  47,  305, -1070
  12744,  160,  305,  569,  32,  1000,  7999,  9999,  19,  53,  233, -1023
  12827,  159,  305,  569,  109,  1000,  9999,  9999,  0,  41,  226, -1075
  12914,  161,  305,  569,  148,  1000,  9999,  9999,  7,  44,  249, -1037
  13003,  161,  305,  569,  110,  1000,  9999,  9999,  14,  41,  264, -1069
  13091,  160,  305,  568,  93,  1000,  9999,  9999,  11,  45,  325, -1032
  13172,  161,  305,  569,  181,  1000,  9999,  9999,  1,  45,  267, -1062
  13254,  162,  305,  569,  158,  1000,  9999,  9999,  12,  61,  268, -1081
  13341,  161,  305,  569,  84,  1000,  7999,  9999,  17,  55,  273, -1057
  13428,  160,  305,  568,  119,  1000,  9999,  9999,  5,  57,  241, -1093
  13513,  161,  305,  570,  86,  1000,  7999,  9999,  15,  50,  238, -1062
  13603,  161,  305,  568,  81,  1000,  9999,  9999,  11,  34,  293, -1038
  13687,  162,  305,  570,  127,  1000,  9999,  9999,  6,  43,  224, -1084
  13772,  161,  305,  568,  107,  1000,  9999,  9999,  12,  52,  265, -1018
  13854,  161,  305,  568,  175,  1000,  9999,  9999,  3,  46,  272, -1096
  13941,  162,  305,  568,  117,  1000,  7999,  9999,  16,  48,  268, -1053
  14024,  161,  305,  568,  129,  1000,  9999,  9999,  8,  48,  293, -1057
  14109,  161,  305,  569,  137,  1000,  9999,  9999,  9,  43,  271, -1068
  14193,  158,  305,  569,  123,  1000,  9999,  9999,  9,  43,  295, -1042
  14282,  161,  305,  568,  134,  1000,  9999,  9999,  9,  43,  278, -1055
  14368,  161,  305,  568,  91,  1000,  9999,  9999,  14,  46,  230, -1030
  14458,  161,  305,  569,  101,  1000,  9999,  9999,  9,  51,  285, -1036
  14545,  161,  305,  568,  56,  1000,  7999,  9999,  17,  51,  261, -1140
  14635,  161,  305,  569,  124,  1000,  9999,  9999,  2,  48,  244, -1072
  14717,  162,  305,  569,  98,  1000,  9999,  9999,  13,  49,  209, -1031
  14807,  160,  305,  568,  80,  1000,  9999,  9999,  12,  35,  244, -1115
  14894,  162,  305,  568,  103,  1000,  9999,  9999,  8,  38,  266, -1026
  14981,  162,  305,  568,  119,  1000,  9999,  9999,  9,  46,  289, -1032
  15066,  162,  305,  567,  98,  1000,  9999,  9999,  12,  40,  279, -1089
  15154,  160,  305,  567,  166,  1000,  9999,  9999,  3,  55,  296, -1076
  15236,  161,  305,  567,  198,  1000,  9999,  9999,  6,  46,  254, -1056
  15313,  162,  305,  568,  157,  1000,  9999,  9999,  12,  45,  206, -1096
  15401,  161,  305,  568,  149,  1000,  9999,  9999,  9,  40,  224, -1055
  15486,  161,  305,  568,  104,  1000,  9999,  9999,  13,  47,  335, -1044
  15572,  162,  305,  570,  106,  1000,  9999,  9999,  10,  50,  279, -1069
  15660,  161,  305,  569,  136,  1000,  9999,  9999,  7,  40,  207, -1076
  15746,  162,  305,  568,  95,  1000,  7999,  9999,  15,  46,  246, -1075
  15831,  161,  305,  568,  141,  1000,  9999,  9999,  5,  37,  264, -1053
  15919,  161,  305,  568,  105,  1000,  9999,  9999,  14,  44,  254, -1057
  16004,  161,  305,  568,  152,  1000,  9999,  9999,  4,  47,  248, -1032
  16086,  161,  305,  569,  152,  1000,  9999,  9999,  10,  39,  256, -1099
  16169,  161,  305,  568,  165,  1000,  9999,  9999,  8,  35,  339, -1069
  16251,  161,  305,  569,  151,  1000,  9999,  9999,  9,  51,  268, -1025
  16337,  161,  305,  568,  134,  1000,  9999,  9999,  10,  48,  264, -1070
  16425,  161,  305,  567,  125,  1000,  9999,  9999,  10,  43,  254, -1054
  16510,  159,  305,  568,  119,  1000,  9999,  9999,  10,  45,  274, -1042
  16592,  162,  305,  567,  139,  1000,  9999,  9999,  8,  37,  286, -1073
  16680,  161,  305,  568,  158,  1000,  9999,  9999,  8,  54,  227, -1103
  16769,  158,  305,  568,  87,  1000,  7999,  9999,  16,  42,  265, -997
  16855,  161,  305,  568,  113,  1000,  9999,  9999,  7,  41,  223, -1043
  16937,  162,  305,  568,  214,  1000,  9999,  9999,  0,  32,  253, -1093
  17024,  160,  305,  568,  105,  1000,  7999,  9999,  20,  53,  223, -1060
  17111,  160,  305,  567,  141,  1000,  9999,  9999,  4,  39,  293, -1063
  17192,  162,  305,  567,  115,  1000,  9999,  9999,  12,  50,  271, -1052
  17280,  161,  305,  568,  88,  1000,  9999,  9999,  12,  55,  223, -1003
  17369,  162,  305,  568,  86,  1000,  9999,  9999,  11,  50,  212, -1071
  17451,  161,  305,  567,  108,  1000,  9999,  9999,  9,  45,  274, -1069
  17538,  160,  305,  567,  124,  1000,  9999,  9999,  9,  48,  224, -1082
  17625,  161,  305,  567,  82,  1000,  9999,  9999,  14,  40,  266, -1126
  17709,  162,  305,  567,  94,  1000,  9999,  9999,  9,  41,  268, -1038
  17796,  161,  305,  568,  77,  1000,  9999,  9999,  12,  43,  234, -1070
  17883,  161,  305,  568,  113,  1000,  9999,  9999,  7,  40,  256, -1075
  17966,  160,  305,  568,  154,  1000,  9999,  9999,  6,  50,  266, -1058
  18051,  162,  305,  568,  108,  1000,  7999,  9999,  15,  47,  249, -1072
  18138,  162,  305,  567,  162,  1000,  9999,  9999,  2,  52,  284, -1071
  18228,  161,  305,  568,  117,  1000,  9999,  9999,  14,  50,  223, -1033
  18310,  161,  305,  568,  144,  1000,  9999,  9999,  5,  44,  295, -1047
  18393,  161,  305,  568,  108,  1000,  9999,  9999,  14,  44,  258, -1058
  18484,  161,  305,  567,  132,  1000,  9999,  9999,  7,  43,  275, -1086
  18564,  162,  305,  567,  131,  1000,  9999,  9999,  9,  43,  256, -1063
  18652,  162,  305,  568,  139,  1000,  9999,  9999,  9,  50,  233, -1078
  18735,  162,  305,  568,  189,  1000,  9999,  9999,  5,  41,  275, -1041
  18816,  162,  305,  567,  156,  1000,  9999,  9999,  11,  46,  250, -1135
  18906,  161,  305,  568,  119,  1000,  9999,  9999,  12,  44,  243, -1053
  18993,  162,  305,  569,  76,  1000,  9999,  9999,  14,  45,  265, -1036
  19084,  161,  305,  568,  115,  1000,  9999,  9999,  5,  46,  314, -1111
  19165,  161,  305,  568,  105,  1000,  9999,  9999,  12,  38,  366, -1148
  19253,  161,  305,  567,  175,  1000,  9999,  9999,  3,  54,  350, -1172
  19334,  162,  305,  567,  167,  1000,  9999,  9999,  10,  60,  236, -1090
  19424,  162,  305,  567,  74,  1000,  7999,  9999,  20,  51,  216, -1067
  19510,  160,  305,  568,  101,  1000,  9999,  9999,  5,  37,  245, -1053
  19597,  162,  305,  568,  152,  1000,  9999,  9999,  5,  36,  322, -1126
  19684,  162,  305,  568,  97,  1000,  7999,  9999,  17,  36,  290, -1088
  19773,  158,  305,  568,  81,  1000,  9999,  9999,  10,  56,  270, -1072
  19857,  161,  305,  568,  164,  1000,  9999,  9999,  2,  62,  297, -1068
  19939,  161,  305,  567,  147,  1000,  9999,  9999,  11,  48,  278, -1103
  20028,  161,  305,  568,  129,  1000,  9999,  9999,  10,  53,  253, -1071
  20115,  161,  305,  568,  136,  1000,  9999,  9999,  9,  46,  250, -1073
  20198,  158,  305,  568,  148,  1000,  9999,  9999,  8,  55,  296, -1094
  20282,  161,  305,  568,  117,  1000,  9999,  9999,  13,  56,  229, -1068
  20369,  160,  305,  568,  123,  1000,  9999,  9999,  10,  54,  259, -1099
  20452,  161,  305,  569,  141,  1000,  9999,  9999,  8,  29,  267, -1076
  20539,  162,  305,  569,  71,  1000,  7999,  9999,  19,  37,  328, -1061
  20628,  162,  305,  568,  77,  1000,  9999,  9999,  9,  38,  227, -1071
  20715,  161,  305,  568,  111,  1000,  9999,  9999,  7,  52,  340, -1060
  20801,  161,  305,  568,  113,  1000,  9999,  9999,  10,  48,  264, -1059
  20886,  162,  305,  569,  110,  1000,  9999,  9999,  10,  54,  239, -1045
  20977,  161,  305,  569,  97,  1000,  9999,  9999,  12,  49,  255, -1050
  21060,  161,  305,  567,  135,  1000,  9999,  9999,  5,  54,  233, -1049
  21151,  162,  305,  568,  161,  1000,  9999,  9999,  8,  35,  298, -1066
  21228,  161,  305,  568,  184,  1000,  9999,  9999,  7,  44,  294, -1080
  21308,  160,  305,  568,  187,  1000,  9999,  9999,  8,  47,  341, -1095
  21392,  161,  305,  568,  174,  1000,  9999,  9999,  9,  43,  254, -1079
  21479,  161,  305,  568,  93,  1000,  7999,  9999,  17,  49,  275, -1055
  21566,  162,  305,  568,  49,  1000,  7999,  9999,  15,  35,  233, -1057
  21657,  162,  305,  568,  88,  1000,  9999,  9999,  6,  37,  223, -1087
  21741,  162,  305,  568,  68,  1000,  7999,  9999,  15,  44,  239, -1091
  21825,  161,  305,  568,  102,  1000,  9999,  9999,  6,  51,  275, -1080
  21915,  162,  305,  568,  126,  1000,  9999,  9999,  9,  47,  256, -1116
  22000,  162,  305,  569,  70,  1000,  7999,  9999,  16,  42,  238, -1080
  22080,  157,  305,  569,  213,  1000,  9999,  9999, -6,  44,  309, -1081
  22166,  162,  305,  570,  121,  1000,  7999,  9999,  20,  41,  219, -1072
  22251,  162,  305,  568,  95,  1000,  9999,  9999,  12,  45,  288, -1115
  22341,  161,  305,  569,  127,  1000,  9999,  9999,  5,  48,  305, -1073
  22432,  161,  305,  569,  121,  1000,  9999,  9999,  11,  47,  274, -1070
  22515,  162,  305,  569,  131,  1000,  9999,  9999,  9,  39,  272, -1094
  22600,  161,  305,  569,  121,  1000,  9999,  9999,  10,  41,  268, -1073
  22687,  161,  305,  569,  127,  1000,  9999,  9999,  9,  47,  276, -1103
  22774,  162,  305,  569,  57,  1000,  7999,  9999,  20,  56,  298, -1078
  22859,  162,  305,  569,  146,  1000,  9999,  9999, -2,  53,  270, -1081
  22943,  161,  305,  569,  180,  1000,  9999,  9999,  8,  55,  278, -1032
  23029,  161,  305,  569,  120,  1000,  7999,  9999,  15,  50,  270, -1065
  23114,  162,  305,  569,  122,  1000,  9999,  9999,  9,  61,  239, -1068
  23201,  161,  305,  569,  93,  1000,  9999,  9999,  13,  54,  251, -1091
  23288,  160,  305,  568,  147,  1000,  9999,  9999,  4,  48,  222, -1042
  23375,  161,  305,  567,  119,  1000,  9999,  9999,  13,  49,  236, -1028
  23459,  162,  305,  568,  100,  1000,  9999,  9999,  11,  44,  293, -1043
  23546,  161,  305,  568,  117,  1000,  9999,  9999,  8,  29,  277, -1041
  23632,  161,  305,  567,  66,  1000,  7999,  9999,  17,  32,  340, -1057
  23718,  161,  305,  569,  94,  1000,  9999,  9999,  7,  41,  305, -1051
  23805,  161,  305,  568,  89,  1000,  9999,  9999,  11,  51,  265, -1129
  23892,  161,  305,  569,  160,  1000,  9999,  9999,  3,  55,  313, -1063
  23979,  161,  305,  569,  128,  1000,  9999,  9999,  13,  56,  275, -1045
  24059,  161,  305,  569,  133,  1000,  9999,  9999,  9,  40,  165, -1056
  24151,  161,  305,  568,  157,  1000,  9999,  9999,  8,  53,  171, -1105
  24236,  161,  305,  568,  121,  1000,  9999,  9999,  13,  42,  285, -1059
  24318,  161,  305,  569,  130,  1000,  9999,  9999,  8,  45,  292, -1086
  24409,  161,  305,  568,  164,  1000,  9999,  9999,  6,  44,  272, -1086
  24496,  162,  305,  569,  104,  1000,  7999,  9999,  15,  51,  302, -1095
  24581,  162,  305,  568,  82,  1000,  9999,  9999,  12,  52,  252, -1052
  24671,  161,  305,  568,  87,  1000,  9999,  9999,  11,  55,  259, -1050
  24754,  161,  305,  568,  125,  1000,  9999,  9999,  7,  46,  248, -1076
  24841,  162,  305,  569,  144,  1000,  9999,  9999,  8,  35,  214, -1108
  24930,  162,  305,  567,  75,  1000,  7999,  9999,  18,  38,  263, -1065
  25014,  160,  305,  568,  88,  1000,  9999,  9999,  8,  39,  285, -1091
  25103,  161,  305,  568,  126,  1000,  9999,  9999,  7,  46,  278, -1051
  25185,  161,  305,  569,  123,  1000,  9999,  9999,  10,  49,  301, -1038
  25271,  161,  305,  569,  173,  1000,  9999,  9999,  5,  52,  270, -1058
  25355,  161,  305,  569,  167,  1000,  9999,  9999,  9,  43,  279, -1054
  25440,  161,  305,  568,  109,  1000,  7999,  9999,  15,  42,  235, -1056
  25526,  160,  305,  568,  63,  1000,  7999,  9999,  15,  44,  259, -1077
  25617,  160,  305,  568,  96,  1000,  9999,  9999,  6,  45,  275, -1076
  25703,  161,  305,  569,  114,  1000,  9999,  9999,  9,  49,  292, -1057
  25789,  161,  305,  568,  99,  1000,  9999,  9999,  11,  48,  286, -1084
  25872,  161,  305,  568,  150,  1000,  9999,  9999,  4,  66,  295, -1080
  25958,  160,  305,  568,  104,  1000,  7999,  9999,  15,  47,  256, -1075
  26047,  161,  305,  568,  119,  1000,  9999,  9999,  8,  49,  247, -1067
  26134,  161,  305,  568,  114,  1000,  9999,  9999,  10,  44,  232, -1040
  26221,  161,  305,  569,  134,  1000,  9999,  9999,  8,  44,  260, -1105
  26299,  161,  305,  569,  151,  1000,  9999,  9999,  8,  59,  299, -1112
  26385,  161,  305,  568,  165,  1000,  9999,  9999,  8,  56,  300, -1052
  26476,  161,  305,  568,  79,  1000,  7999,  9999,  19,  55,  296, -1049
  26562,  162,  305,  569,  61,  1000,  9999,  9999,  12,  57,  279, -1044
  26647,  162,  305,  569,  138,  1000,  9999,  9999,  2,  51,  254, -1046
  26731,  162,  305,  568,  123,  1000,  9999,  9999,  12,  50,  245, -1061
  26817,  160,  305,  569,  154,  1000,  9999,  9999,  6,  54,  274, -1074
  26906,  161,  305,  569,  54,  1000,  7999,  9999,  22,  56,  141, -1089
  26989,  162,  305,  567,  111,  1000,  9999,  9999,  2,  41,  285, -1062
  27076,  160,  305,  568,  178,  1000,  9999,  9999,  5,  51,  272, -1072
  27157,  161,  305,  568,  118,  1000,  7999,  9999,  16,  37,  313, -1099
  27240,  162,  305,  568,  157,  1000,  9999,  9999,  5,  56,  264, -1065
  27323,  160,  305,  568,  151,  1000,  9999,  9999,  9,  33,  271, -1073
  27413,  160,  305,  569,  94,  1000,  7999,  9999,  16,  41,  313, -1059
  27494,  161,  305,  568,  123,  1000,  9999,  9999,  6,  42,  226, -1062
  27585,  161,  305,  568,  91,  1000,  9999,  9999,  14,  46,  236, -1034
  27668,  161,  305,  569,  90,  1000,  9999,  9999,  11,  43,  251, -1058
  27757,  162,  305,  569,  124,  1000,  9999,  9999,  7,  50,  278, -1074
  27845,  160,  305,  568,  89,  1000,  7999,  9999,  15,  52,  252, -1107
  27928,  160,  305,  568,  119,  1000,  9999,  9999,  7,  47,  216, -1071
  28016,  162,  305,  568,  72,  1000,  7999,  9999,  16,  38,  251, -1085
  28102,  162,  305,  568,  86,  1000,  9999,  9999,  9,  35,  255, -1083
  28190,  161,  305,  569,  122,  1000,  9999,  9999,  6,  47,  282, -1076
  28277,  161,  305,  568,  108,  1000,  9999,  9999,  12,  40,  229, -1081
  28365,  161,  305,  568,  54,  1000,  7999,  9999,  16,  45,  291, -1096
  28452,  161,  305,  568,  81,  1000,  9999,  9999,  7,  47,  298, -1075
  28535,  161,  305,  568,  152,  1000,  9999,  9999,  4,  48,  272, -1096
  28624,  162,  305,  568,  63,  1000,  7999,  9999,  22,  60,  257, -1091
  28710,  161,  305,  569,  83,  1000,  9999,  9999,  6,  41,  221, -1085
  28798,  160,  305,  569,  84,  1000,  9999,  9999,  11,  29,  244, -1066
  28888,  161,  305,  568,  89,  1000,  9999,  9999,  11,  34,  310, -1087
  28969,  162,  305,  568,  211,  1000,  9999,  9999, -3,  52,  274, -1067
  29057,  161,  305,  569,  124,  1000,  7999,  9999,  19,  51,  221, -1058
  29146,  162,  305,  568,  72,  1000,  9999,  9999,  14,  49,  268, -1064
  29232,  162,  305,  568,  88,  1000,  9999,  9999,  9,  46,  253, -1069
  29318,  162,  305,  568,  169,  1000,  9999,  9999,  2,  46,  229, -1125
  29401,  161,  305,  568,  116,  1000,  7999,  9999,  15,  42,  269, -1100
  29492,  162,  305,  569,  98,  1000,  9999,  9999,  11,  39,  266, -1111
  29573,  162,  305,  568,  152,  1000,  9999,  9999,  4,  42,  244, -1060
  29665,  161,  305,  568,  132,  1000,  9999,  9999,  11,  44,  300, -1071
  29750,  160,  305,  568,  109,  1000,  9999,  9999,  11,  44,  191, -1091
  29832,  162,  305,  569,  129,  1000,  9999,  9999,  7,  47,  265, -1033
  29922,  162,  305,  569,  171,  1000,  9999,  9999,  6,  35,  181, -1110
  30009,  161,  305,  570,  119,  1000,  9999,  9999,  14,  37,  196, -1084
  30092,  162,  305,  569,  160,  1000,  9999,  9999,  5,  39,  264, -1066
  30177,  162,  305,  569,  99,  1000,  7999,  9999,  15,  51,  195, -1096
  30269,  161,  305,  569,  80,  1000,  9999,  9999,  13,  44,  232, -1052
  30350,  160,  305,  569,  128,  1000,  9999,  9999,  4,  36,  246, -1046
  30439,  162,  305,  569,  134,  1000,  9999,  9999,  10,  47,  190, -1108
  30526,  161,  305,  568,  94,  1000,  9999,  9999,  14,  46,  363, -1093
  30613,  160,  305,  568,  170,  1000,  9999,  9999,  1,  55,  265, -1060
  30696,  160,  305,  569,  129,  1000,  9999,  9999,  14,  46,  308, -1061
  30777,  161,  305,  568,  156,  1000,  9999,  9999,  6,  39,  277, -992
  30865,  162,  305,  568,  112,  1000,  9999,  9999,  14,  41,  247, -1107
  30947,  162,  305,  568,  126,  1000,  9999,  9999,  8,  32,  265, -1075
  31032,  161,  305,  569,  162,  1000,  9999,  9999,  5,  36,  195, -1071
  31124,  161,  305,  568,  96,  1000,  7999,  9999,  18,  34,  229, -1105
  31209,  160,  305,  568,  64,  1000,  9999,  9999,  13,  58,  285, -1020
  31300,  162,  305,  568,  72,  1000,  9999,  9999,  11,  55,  299, -1127
  31381,  160,  305,  569,  155,  1000,  9999,  9999,  1,  51,  219, -1045
  31472,  161,  305,  568,  112,  1000,  7999,  9999,  15,  43,  219, -1126
  31555,  162,  305,  569,  137,  1000,  9999,  9999,  7,  38,  283, -1046
  31643,  162,  305,  568,  87,  1000,  7999,  9999,  15,  53,  280, -1070
  31730,  162,  305,  568,  151,  1000,  9999,  9999,  2,  42,  262, -1075
  31814,  162,  305,  568,  147,  1000,  9999,  9999,  10,  38,  300, -1075
  31898,  161,  305,  568,  119,  1000,  9999,  9999,  12,  54,  280, -1089
  31985,  160,  305,  567,  87,  1000,  9999,  9999,  12,  55,  237, -1091
  32072,  160,  305,  568,  92,  1000,  9999,  9999,  11,  55,  256, -1041
  32157,  162,  305,  568,  107,  1000,  9999,  9999,  9,  54,  230, -1043
  32243,  162,  305,  569,  123,  1000,  9999,  9999,  9,  40,  237, -1069
  32330,  161,  305,  569,  88,  1000,  9999,  9999,  14,  32,  260, -1051
  32417,  161,  305,  568,  125,  1000,  9999,  9999,  6,  46,  254, -1136
  32502,  162,  305,  567,  136,  1000,  9999,  9999,  9,  43,  310, -1043
  32586,  157,  305,  568,  159,  1000,  9999,  9999,  7,  57,  272, -1054
  32668,  161,  305,  567,  161,  1000,  9999,  9999,  9,  50,  285, -1106
  32753,  161,  305,  566,  119,  1000,  9999,  9999,  13,  30,  311, -1039
  32841,  160,  305,  567,  99,  1000,  9999,  9999,  11,  49,  241, -1107
  32926,  160,  305,  567,  129,  1000,  9999,  9999,  7,  45,  315, -1037
  33012,  161,  305,  568,  100,  1000,  9999,  9999,  13,  56,  243, -1089
  33095,  162,  305,  568,  164,  1000,  9999,  9999,  3,  58,  296, -1099
  33178,  160,  305,  569,  175,  1000,  9999,  9999,  9,  44,  220, -1058
  33267,  162,  305,  568,  40,  1000,  7999,  9999,  26,  48,  247, -1080
  33353,  162,  305,  569,  81,  1000,  9999,  9999,  3,  42,  269, -1046
  33440,  161,  305,  568,  128,  1000,  9999,  9999,  7,  54,  245, -1074
  33522,  162,  305,  568,  137,  1000,  9999,  9999,  10,  40,  244, -1062
  33608,  161,  305,  567,  171,  1000,  9999,  9999,  6,  47,  286, -1088
  33692,  161,  305,  568,  131,  1000,  9999,  9999,  12,  46,  265, -1064
  33777,  162,  305,  568,  111,  1000,  9999,  9999,  11,  49,  279, -1058
  33859,  160,  305,  568,  164,  1000,  9999,  9999,  3,  47,  299, -1128
  33942,  161,  305,  568,  171,  1000,  9999,  9999,  9,  54,  258, -1080
  34029,  161,  305,  569,  113,  1000,  9999,  9999,  14,  57,  277, -1101
  34110,  161,  305,  568,  165,  1000,  9999,  9999,  2,  55,  324, -1099
  34194,  161,  305,  568,  184,  1000,  9999,  9999,  9,  45,  264, -1065
  34270,  162,  305,  568,  151,  1000,  9999,  9999,  11,  47,  262, -1057
  34358,  161,  305,  567,  171,  1000,  9999,  9999,  7,  49,  287, -1061
  34441,  161,  305,  567,  184,  1000,  9999,  9999,  8,  45,  280, -1042
  34517,  161,  305,  567,  184,  1000,  9999,  9999,  8,  56,  234, -1104
  34604,  160,  305,  567,  166,  1000,  9999,  9999,  9,  36,  263, -1102
  34691,  161,  305,  567,  89,  1000,  7999,  9999,  17,  48,  208, -1047
  34776,  162,  305,  567,  149,  1000,  9999,  9999,  1,  42,  264, -1088
  34864,  161,  305,  567,  31,  1000,  7999,  9999,  26,  39,  274, -1079
  34953,  160,  305,  567,  65,  1000,  9999,  9999,  5,  43,  217, -1110
  35031,  162,  305,  568,  158,  1000,  9999,  9999,  1,  40,  301, -1086
  35121,  160,  305,  568,  112,  1000,  7999,  9999,  15,  52,  257, -1047
  35209,  161,  305,  568,  129,  1000,  9999,  9999,  7,  53,  225, -1053
  35286,  162,  305,  568,  201,  1000,  9999,  9999,  3,  31,  272, -1099
  35370,  161,  305,  568,  151,  1000,  9999,  9999,  13,  39,  301, -1054
  35459,  161,  305,  568,  87,  1000,  7999,  9999,  15,  49,  312, -1037
  35545,  165,  305,  568,  107,  1000,  9999,  9999,  7,  52,  265, -1091
  35631,  161,  305,  567,  68,  1000,  7999,  9999,  15,  49,  293, -1043
  35714,  160,  305,  567,  153,  1000,  9999,  9999, -1,  54,  206, -1080
  35801,  160,  305,  567,  117,  1000,  7999,  9999,  15,  28,  284, -1050
  35886,  161,  305,  567,  156,  1000,  9999,  9999,  5,  37,  220, -1094
  35974,  161,  305,  566,  55,  1000,  7999,  9999,  22,  34,  262, -1070
  36063,  161,  305,  567,  128,  1000,  9999,  9999, -1,  35,  254, -1130
  36144,  162,  305,  566,  139,  1000,  9999,  9999,  10,  38,  278, -1066
  36228,  161,  305,  567,  162,  1000,  9999,  9999,  7,  43,  264, -1071
  36311,  160,  305,  568,  163,  1000,  9999,  9999,  8,  47,  295, -1118
  36395,  161,  305,  567,  108,  1000,  7999,  9999,  15,  44,  318, -1019
  36482,  161,  305,  567,  112,  1000,  9999,  9999,  9,  57,  285, -1061
  36569,  161,  305,  567,  90,  1000,  9999,  9999,  13,  41,  276, -1059
  36656,  161,  305,  567,  54,  1000,  9999,  9999,  14,  50,  279, -1038
  36744,  161,  305,  568,  171,  1000,  9999,  9999, -4,  34,  285, -1028
  36832,  161,  305,  567,  88,  1000,  7999,  9999,  20,  49,  288, -1127
  36915,  160,  305,  567,  146,  1000,  9999,  9999,  1,  55,  285, -1110
  36995,  161,  305,  567,  134,  1000,  9999,  9999,  11,  53,  274, -1056
  37086,  161,  305,  568,  53,  1000,  7999,  9999,  19,  48,  301, -1124
  37173,  161,  305,  568,  102,  1000,  9999,  9999,  4,  59,  206, -1073
  37258,  162,  305,  567,  112,  1000,  9999,  9999,  9,  41,  177, -1082
  37344,  162,  305,  568,  99,  1000,  9999,  9999,  11,  50,  368, -1056
  37428,  162,  305,  568,  147,  1000,  9999,  9999,  5,  29, -11, -967
  37513,  162,  305,  567,  103,  1000,  7999,  9999,  15,  48,  274, -1007
  37599,  162,  305,  567,  169,  1000,  9999,  9999,  1,  58,  247, -1015
  37690,  162,  305,  567,  69,  1000,  7999,  9999,  23,  51,  267, -1031
  37777,  162,  305,  568,  114,  1000,  9999,  9999,  3,  47,  223, -1033
  37862,  162,  305,  567,  106,  1000,  9999,  9999,  11,  53,  257, -1066
  37952,  161,  305,  567,  110,  1000,  9999,  9999,  10,  61,  247, -1044
  38036,  161,  305,  567,  108,  1000,  9999,  9999,  10,  51,  199, -1032
  38121,  162,  305,  567,  150,  1000,  9999,  9999,  5,  40,  271, -1032
  38207,  161,  305,  566,  76,  1000,  7999,  9999,  19,  38,  235, -1076
  38290,  160,  305,  567,  129,  1000,  9999,  9999,  3,  46,  267, -1094
  38377,  161,  305,  567,  132,  1000,  9999,  9999,  10,  35,  265, -1114
  38457,  161,  305,  566,  107,  1000,  9999,  9999,  11,  37,  281, -1086
  38545,  160,  305,  568,  155,  1000,  9999,  9999,  4,  42,  217, -1115
  38632,  160,  305,  568,  102,  1000,  7999,  9999,  15,  34,  294, -1059
  38716,  162,  305,  567,  68,  1000,  9999,  9999,  14,  40,  273, -1073
  38806,  161,  305,  566,  102,  1000,  9999,  9999,  6,  39,  322, -1060
  38894,  160,  305,  566,  58,  1000,  7999,  9999,  16,  40,  315, -1095
  38985,  160,  305,  566,  22,  1000,  7999,  9999,  15,  58,  232, -1067
  39069,  161,  305,  568,  53,  1000,  9999,  9999,  8,  55,  246, -1040
  39157,  161,  305,  566,  98,  1000,  9999,  9999,  6,  46,  252, -1065
  39246,  162,  305,  567,  94,  1000,  9999,  9999,  12,  38,  266, -1043
  39333,  160,  305,  567,  150,  1000,  9999,  9999,  3,  46,  267, -1115
  39418,  161,  305,  567,  100,  1000,  7999,  9999,  16,  44,  289, -1060
  39501,  161,  305,  566,  162,  1000,  9999,  9999,  2,  58,  304, -1065
  39588,  161,  305,  567,  129,  1000,  9999,  9999,  13,  45,  265, -1087
  39673,  161,  305,  567,  130,  1000,  9999,  9999,  9,  45,  180, -1056
  39756,  160,  305,  567,  167,  1000,  9999,  9999,  5,  35,  275, -1048
  39842,  162,  305,  567,  134,  1000,  9999,  9999,  12,  46,  260, -1080
  39928,  161,  305,  567,  135,  1000,  9999,  9999,  9,  49,  310, -1054
  40015,  160,  305,  567,  136,  1000,  9999,  9999,  9,  64,  223, -1112
  40098,  161,  305,  567,  156,  1000,  9999,  9999,  8,  52,  256, -1083
  40182,  161,  305,  567,  183,  1000,  9999,  9999,  7,  53,  205, -1056
  40270,  162,  305,  566,  163,  1000,  9999,  9999,  9,  51,  225, -1053
  40357,  161,  305,  566,  118,  1000,  9999,  9999,  13,  32,  281, -954
  40437,  161,  305,  566,  164,  1000,  9999,  9999,  4,  28,  293, -1416
  40520,  161,  305,  567,  121,  1000,  9999,  9999,  14,  47,  225, -1156
  40607,  161,  305,  568,  163,  1000,  9999,  9999,  4,  23,  239, -1078
  40692,  162,  305,  568,  95,  1000,  7999,  9999,  18,  52,  262, -1036
  40778,  161,  305,  567,  135,  1000,  9999,  9999,  4,  38,  297, -1005
  40866,  160,  305,  568,  156,  1000,  9999,  9999,  8,  44,  234, -1095
  40953,  161,  305,  567,  137,  1000,  9999,  9999,  11,  57,  285, -1118
  41033,  162,  305,  568,  125,  1000,  9999,  9999,  10,  51,  272, -1037
  41117,  160,  305,  566,  157,  1000,  9999,  9999,  6,  49,  319, -1052
  41202,  161,  305,  566,  109,  1000,  7999,  9999,  15,  41,  245, -1023
  41288,  161,  305,  566,  152,  1000,  9999,  9999,  4,  47,  259, -990
  41376,  161,  305,  567,  133,  1000,  9999,  9999,  11,  44,  267, -1070
  41461,  160,  305,  567,  50,  1000,  7999,  9999,  21,  52,  256, -1025
  41551,  162,  305,  567,  118,  1000,  9999,  9999,  0,  54,  286, -1093
  41633,  162,  305,  568,  104,  1000,  9999,  9999,  13,  48,  301, -1107
  41720,  161,  305,  567,  146,  1000,  9999,  9999,  6,  26,  286, -1063
  41807,  161,  305,  566,  160,  1000,  9999,  9999,  8,  44,  295, -1095
  41888,  161,  305,  567,  122,  1000,  9999,  9999,  13,  52,  313, -1052
  41976,  160,  305,  567,  77,  1000,  9999,  9999,  14,  43,  233, -1082
  42061,  161,  305,  567,  174,  1000,  9999,  9999, -1,  56,  278, -1093
  42146,  162,  305,  566,  113,  1000,  7999,  9999,  17,  47,  257, -1067
  42234,  162,  305,  567,  125,  1000,  9999,  9999,  8,  46,  266, -1030
  42320,  162,  305,  567,  128,  1000,  9999,  9999,  9,  40,  254, -1093
  42401,  161,  305,  567,  137,  1000,  9999,  9999,  9,  41,  250, -1070
  42489,  161,  305,  566,  146,  1000,  9999,  9999,  8,  52,  274, -1115
  42568,  161,  305,  567,  190,  1000,  9999,  9999,  5,  61,  274, -1102
  42652,  161,  305,  567,  126,  1000,  7999,  9999,  16,  44,  238, -1031
  42743,  161,  305,  566,  94,  1000,  9999,  9999,  12,  48,  221, -1160
  42825,  162,  305,  567,  129,  1000,  9999,  9999,  5,  48,  258, -1068
  42911,  162,  305,  567,  135,  1000,  9999,  9999,  9,  49,  290, -1060
  42994,  160,  305,  567,  142,  1000,  9999,  9999,  9,  50,  258, -1073
  43081,  161,  305,  566,  135,  1000,  9999,  9999,  10,  46,  229, -1051
  43166,  161,  305,  567,  166,  1000,  9999,  9999,  6,  45,  276, -1065
  43249,  160,  305,  567,  171,  1000,  9999,  9999,  8,  52,  249, -1082
  43336,  160,  305,  568,  141,  1000,  9999,  9999,  12,  43,  199, -1046
  43416,  161,  305,  567,  157,  1000,  9999,  9999,  7,  48,  233, -943
  43503,  160,  305,  567,  124,  1000,  9999,  9999,  12,  24,  241, -1106
  43586,  161,  305,  567,  113,  1000,  9999,  9999,  10,  40,  262, -1121
  43677,  162,  305,  567,  110,  1000,  9999,  9999,  10, -142,  514, -255
  43761,  162,  305,  568,  158,  1000,  9999,  9999,  5,  111,  51, -1463
  43845,  161,  305,  568,  137,  1000,  9999,  9999,  11, -73,  377, -1419
  43932,  161,  305,  567,  127,  1000,  9999,  9999,  9,  82,  263, -996
  44016,  161,  305,  567,  98,  1000,  9999,  9999,  13,  49,  278, -676
  44107,  162,  305,  568,  116,  1000,  9999,  9999,  8,  62,  220, -1096
  44190,  161,  305,  567,  128,  1000,  9999,  9999,  9,  54,  305, -1050
  44279,  158,  305,  567,  127,  1000,  9999,  9999,  9,  42,  311, -1105
  44365,  161,  305,  568,  97,  1000,  9999,  9999,  14,  65,  224, -1080
  44453,  161,  305,  566,  87,  1000,  9999,  9999,  10,  50,  294, -1017
  44543,  161,  305,  567,  106,  1000,  9999,  9999,  9,  36,  223, -1093
  44624,  162,  305,  567,  132,  1000,  9999,  9999,  8,  40,  294, -1070
  44715,  161,  305,  567,  84,  1000,  7999,  9999,  15,  46,  259, -1112
  44806,  161,  305,  566,  102,  1000,  9999,  9999,  8,  46,  271, -1045
  44887,  162,  305,  566,  163,  1000,  9999,  9999,  4,  48,  251, -1145
  44968,  162,  305,  567,  149,  1000,  9999,  9999,  10,  43,  231, -1022
  45053,  161,  305,  567,  168,  1000,  9999,  9999,  7,  43,  302, -1087
  45137,  161,  305,  567,  124,  1000,  9999,  9999,  14,  44,  298, -1144
  45220,  161,  305,  567,  164,  1000,  9999,  9999,  4,  41,  228, -1054
  45303,  160,  305,  567,  152,  1000,  9999,  9999,  10,  38,  284, -1033
  45388,  161,  305,  567,  50,  1000,  7999,  9999,  22,  40,  197, -1083
  45478,  161,  305,  568,  102,  1000,  9999,  9999,  3,  54,  306, -1052
  45570,  160,  305,  566,  89,  1000,  9999,  9999,  12,  34,  232, -1023
  45651,  161,  305,  566,  163,  1000,  9999,  9999,  2,  45,  261, -1109
  45737,  161,  305,  567,  21,  1000,  7999,  9999,  30,  49,  248, -1020
  45827,  161,  305,  567,  111,  1000,  9999,  9999, -4,  44,  271, -1122
  45910,  161,  305,  567,  153,  1000,  9999,  9999,  8,  58,  226, -1068
  45997,  162,  305,  567,  54,  1000,  7999,  9999,  22,  50,  241, -1078
  46082,  162,  305,  567,  133,  1000,  9999,  9999, -1,  42,  260, -1111
  46165,  162,  305,  566,  135,  1000,  9999,  9999,  11,  56,  237, -1066
  46256,  161,  305,  567,  93,  1000,  9999,  9999,  14,  43,  219, -1138
  46336,  161,  305,  566,  145,  1000,  9999,  9999,  3,  45,  263, -1119
  46419,  162,  305,  566,  180,  1000,  9999,  9999,  7,  52,  274, -1066
  46506,  162,  305,  567,  55,  1000,  7999,  9999,  24,  46,  235, -1090
  46595,  162,  305,  566,  134,  1000,  9999,  9999, -2,  50,  309, -1103
  46681,  161,  305,  566,  109,  1000,  7999,  9999,  15,  40,  281, -1001
  46765,  161,  305,  566,  127,  1000,  9999,  9999,  7,  51,  226, -1108
  46852,  161,  305,  567,  141,  1000,  9999,  9999,  9,  53,  262, -1051
  46929,  162,  305,  565,  159,  1000,  9999,  9999,  8,  54,  257, -1087
  47020,  161,  305,  567,  92,  1000,  7999,  9999,  17,  57,  271, -1132
  47105,  161,  305,  567,  61,  1000,  9999,  9999,  14,  46,  216, -1041
  47191,  162,  305,  567,  97,  1000,  9999,  9999,  7,  48,  198, -1089
  47283,  161,  305,  565,  107,  1000,  9999,  9999,  10,  41,  265, -1067
  47368,  160,  305,  566,  88,  1000,  9999,  9999,  12,  40,  253, -1106
  47459,  161,  305,  566,  71,  1000,  9999,  9999,  12,  45,  277, -1058
  47548,  161,  305,  567,  72,  1000,  9999,  9999,  11,  58,  289, -1096
  47632,  161,  305,  566,  125,  1000,  9999,  9999,  6,  46,  221, -999
  47722,  161,  305,  567,  109,  1000,  9999,  9999,  12,  37,  303, -1119
  47806,  162,  305,  566,  154,  1000,  9999,  9999,  4,  40,  296, -1044
  47890,  161,  305,  567,  141,  1000,  9999,  9999,  11,  47,  292, -1067
  47977,  161,  305,  566,  129,  1000,  9999,  9999,  10,  50,  228, -1061
  48057,  161,  305,  567,  126,  1000,  9999,  9999,  10,  40,  276, -1057
  48147,  161,  305,  565,  125,  1000,  9999,  9999,  10,  48,  248, -1078
  48226,  162,  305,  567,  194,  1000,  9999,  9999,  2,  58,  234, -1138
  48312,  162,  305,  566,  143,  1000,  7999,  9999,  15,  41,  210, -1064
  48398,  161,  305,  566,  148,  1000,  9999,  9999,  8,  41,  236, -1095
  48482,  161,  305,  567,  123,  1000,  9999,  9999,  11,  45,  273, -1085
  48571,  162,  305,  567,  91,  1000,  9999,  9999,  13,  47,  278, -1070
  48657,  161,  305,  566,  94,  1000,  9999,  9999,  11,  49,  233, -1015
  48740,  160,  305,  567,  128,  1000,  9999,  9999,  6,  44,  308, -1041
  48827,  162,  305,  565,  90,  1000,  7999,  9999,  15,  37,  245, -1039
  48912,  161,  305,  566,  169,  1000,  9999,  9999,  1,  49,  246, -1080
  48999,  157,  305,  566,  111,  1000,  7999,  9999,  15,  40,  259, -1032
  49078,  162,  305,  566,  181,  1000,  9999,  9999,  2,  59,  244, -1125
  49162,  161,  305,  566,  137,  1000,  9999,  9999,  14,  53,  229, -1037
  49245,  158,  305,  566,  123,  1000,  9999,  9999,  8,  39,  279, -1071
  49332,  161,  305,  566,  161,  1000,  9999,  9999,  7,  43,  235, -1057
  49417,  161,  305,  567,  100,  1000,  7999,  9999,  15,  41,  274, -1089
  49503,  160,  305,  566,  87,  1000,  9999,  9999,  11,  43,  221, -1103
  49590,  161,  305,  565,  118,  1000,  9999,  9999,  7,  65,  327, -1068
  49681,  161,  305,  567,  67,  1000,  7999,  9999,  17,  53,  219, -1100
  49766,  162,  305,  567,  43,  1000,  9999,  9999,  14,  58,  211, -1102
  49854,  161,  305,  567,  200,  1000,  9999,  9999, -7,  47,  298, -1021
  49940,  160,  305,  567,  84,  1000,  7999,  9999,  24,  39,  229, -1127
  50025,  162,  305,  567,  66,  1000,  9999,  9999,  12,  39,  261, -1068
  50111,  161,  305,  568,  143,  1000,  9999,  9999,  2,  43,  244, -1094
  50194,  162,  305,  567,  159,  1000,  9999,  9999,  9,  58,  256, -1054
  50276,  162,  305,  566,  122,  1000,  9999,  9999,  13,  47,  294, -1106
  50366,  161,  305,  566,  107,  1000,  9999,  9999,  11,  54,  272, -1096
  50454,  161,  305,  567,  78,  1000,  9999,  9999,  13,  40,  297, -1063
  50544,  161,  305,  568,  48,  1000,  9999,  9999,  14,  50,  267, -1085
  50624,  161,  305,  567,  168,  1000,  9999,  9999, -4,  43,  249, -1122
  50707,  158,  305,  567,  185,  1000,  9999,  9999,  9,  47,  298, -1049
  50790,  161,  305,  567,  120,  1000,  7999,  9999,  15,  48,  226, -1070
  50879,  162,  305,  567,  121,  1000,  9999,  9999,  9,  47,  260, -1084
  50967,  162,  305,  566,  81,  1000,  9999,  9999,  14,  37,  245, -1063
  51056,  162,  305,  567,  113,  1000,  9999,  9999,  6,  39,  249, -1089
  51138,  161,  305,  568,  109,  1000,  9999,  9999,  10,  46,  264, -1075
  51228,  162,  305,  567,  91,  1000,  9999,  9999,  12,  54,  262, -1109
  51312,  161,  305,  567,  116,  1000,  9999,  9999,  7,  40,  270, -1122
  51398,  162,  305,  567,  160,  1000,  9999,  9999,  7,  30,  323, -1048
  51483,  162,  305,  567,  121,  1000,  9999,  9999,  14,  49,  205, -1061
  51571,  161,  305,  568,  123,  1000,  9999,  9999,  10,  43,  311, -1053
  51653,  161,  305,  567,  114,  1000,  9999,  9999,  10,  36,  250, -1035
  51741,  162,  305,  566,  160,  1000,  9999,  9999,  5,  51,  242, -1034
  51828,  161,  305,  567,  140,  1000,  9999,  9999,  11,  33,  276, -1089
  51912,  160,  305,  566,  117,  1000,  9999,  9999,  11,  50,  238, -1050
  51996,  162,  305,  567,  166,  1000,  9999,  9999,  4,  48,  251, -1038
  52086,  161,  305,  568,  71,  1000,  7999,  9999,  21,  39,  272, -1060
  52173,  161,  305,  567,  34,  1000,  7999,  9999,  15,  47,  304, -1029
  52259,  162,  305,  567,  65,  1000,  9999,  9999,  8,  54,  251, -1079
  52345,  162,  305,  568,  167,  1000,  9999,  9999, -1,  43,  274, -1054
  52432,  161,  305,  567,  102,  1000,  7999,  9999,  18,  52,  272, -1045
  52515,  161,  305,  567,  172,  1000,  9999,  9999,  1,  45,  295, -1044
  52600,  162,  305,  567,  136,  1000,  9999,  9999,  13,  50,  279, -1057
  52686,  161,  305,  567,  99,  1000,  9999,  9999,  12,  54,  246, -1073
  52773,  162,  305,  568,  152,  1000,  9999,  9999,  4,  48,  249, -1065
  52860,  162,  305,  567,  138,  1000,  9999,  9999,  11,  30,  308, -1099
  52941,  161,  305,  567,  126,  1000,  9999,  9999,  10,  46,  272, -1099
  53024,  162,  305,  567,  196,  1000,  9999,  9999,  2,  60,  315, -1062
  53105,  162,  305,  567,  159,  1000,  9999,  9999,  12,  46,  252, -1072
  53188,  161,  305,  567,  129,  1000,  9999,  9999,  11,  47,  204, -1068
  53275,  161,  305,  567,  122,  1000,  9999,  9999,  10,  44,  265, -1074
  53356,  162,  305,  568,  129,  1000,  9999,  9999,  9,  45,  278, -1072
  53446,  162,  305,  567,  67,  1000,  7999,  9999,  18,  48,  221, -1063
  53529,  161,  305,  567,  101,  1000,  9999,  9999,  5,  45,  292, -1083
  53621,  162,  305,  567,  152,  1000,  9999,  9999,  5,  47,  274, -1059
  53701,  161,  305,  568,  131,  1000,  9999,  9999,  11,  36,  214, -1123
  53784,  160,  305,  566,  169,  1000,  9999,  9999,  5,  51,  273, -1068
  53871,  161,  305,  567,  102,  1000,  7999,  9999,  17,  41,  228, -1082
  53960,  161,  305,  567,  56,  1000,  7999,  9999,  15,  42,  301, -1060
  54048,  161,  305,  567,  120,  1000,  9999,  9999,  3,  55,  271, -1108
  54133,  162,  305,  568,  109,  1000,  9999,  9999,  13,  55,  239, -1080
  54218,  161,  305,  568,  95,  1000,  9999,  9999,  11,  39,  257, -1065
  54305,  161,  305,  567,  104,  1000,  9999,  9999,  10,  48,  287, -1038
  54388,  160,  305,  567,  127,  1000,  9999,  9999,  8,  43,  257, -1073
  54469,  162,  305,  567,  111,  1000,  9999,  9999,  12,  43,  273, -1058
  54556,  160,  305,  567,  100,  1000,  9999,  9999,  11,  42,  275, -1093
  54643,  160,  305,  567,  118,  1000,  9999,  9999,  9,  39,  308, -1081
  54730,  162,  305,  567,  100,  1000,  9999,  9999,  12,  52,  284, -1088
  54814,  161,  305,  568,  113,  1000,  9999,  9999,  9,  47,  295, -1114
  54902,  160,  305,  567,  75,  1000,  9999,  9999,  14,  61,  260, -1124
  54987,  161,  305,  567,  135,  1000,  9999,  9999,  3,  69,  238, -1203
  55073,  162,  305,  567,  122,  1000,  9999,  9999,  11,  39,  346, -1059
  55160,  161,  305,  567,  118,  1000,  9999,  9999,  10,  56,  333, -1178
  55243,  162,  305,  567,  163,  1000,  9999,  9999,  5,  50,  283, -1041
  55327,  162,  305,  567,  154,  1000,  9999,  9999,  10,  38,  241, -1134
  55411,  160,  305,  566,  144,  1000,  9999,  9999,  9,  38,  269, -1055
  55502,  161,  305,  567,  66,  1000,  7999,  9999,  20,  41,  328, -1112
  55586,  161,  305,  568,  124,  1000,  9999,  9999,  2,  39,  236, -1028
  55672,  161,  305,  567,  141,  1000,  9999,  9999,  8,  47,  309, -1105
  55759,  162,  305,  568,  49,  1000,  7999,  9999,  22,  50,  259, -1073
  55850,  161,  305,  568,  99,  1000,  9999,  9999,  3,  60,  216, -1080
  55935,  161,  305,  567,  63,  1000,  7999,  9999,  17,  43,  231, -1059
  56019,  161,  305,  567,  131,  1000,  9999,  9999,  2,  30,  205, -1085
  56108,  161,  305,  566,  81,  1000,  7999,  9999,  16,  44,  254, -1087
  56186,  162,  305,  566,  187,  1000,  9999,  9999, -2,  50,  244, -1102
  56273,  161,  305,  566,  129,  1000,  7999,  9999,  16,  51,  265, -1053
  56356,  160,  305,  566,  127,  1000,  9999,  9999,  8,  55,  228, -1041
  56440,  162,  305,  567,  137,  1000,  9999,  9999,  9,  42,  265, -1070
  56527,  161,  305,  567,  52,  1000,  7999,  9999,  20,  41,  266, -1039
  56614,  162,  305,  566,  145,  1000,  9999,  9999, -2,  43,  293, -1102
  56697,  162,  305,  567,  126,  1000,  9999,  9999,  14,  30,  248, -1057
  56785,  162,  305,  567,  149,  1000,  9999,  9999,  7,  55,  270, -1107
  56869,  161,  305,  566,  86,  1000,  7999,  9999,  16,  45,  58, -1251
  56956,  161,  305,  566,  134,  1000,  9999,  9999,  3,  56,  211, -1124
  57036,  162,  305,  567,  155,  1000,  9999,  9999,  8,  51,  318, -1077
  57120,  162,  218,  567,  173,  1000,  7999,  9999,  16,  44,  195, -1003
  57206,  162,  179,  567,  48,  1000,  7999,  9999,  22,  33,  307, -1127
  57295,  161,  272,  567,  161,  1000,  9999,  9999, -8,  52,  238, -1047
  57379,  161,  305,  567,  117,  1000,  9999,  9999,  14,  44,  280, -1055
  57468,  162,  305,  566,  73,  1000,  7999,  9999,  15,  43,  312, -1115
  57549,  162,  305,  566,  108,  1000,  9999,  9999,  6,  41,  148, -1081
  57640,  162,  305,  566,  76,  1000,  9999,  9999,  14,  55,  345, -1105
  57727,  161,  305,  566,  133,  1000,  9999,  9999,  4,  40,  259, -1158
  57814,  161,  305,  566,  113,  1000,  9999,  9999,  13,  49,  270, -962
  57902,  162,  305,  567,  66,  1000,  7999,  9999,  16,  35,  247, -1082
  57989,  161,  305,  566,  38,  1000,  7999,  9999,  15,  45,  247, -1164
  58080,  160,  305,  567,  109,  1000,  9999,  9999,  2,  36,  294, -1029
  58163,  161,  305,  566,  123,  1000,  9999,  9999,  10,  48,  254, -1168
  58251,  162,  305,  566,  69,  1000,  7999,  9999,  17,  44,  270, -1089
  58339,  162,  305,  567,  107,  1000,  9999,  9999,  5,  49,  292, -1006
  58424,  160,  305,  566,  121,  1000,  9999,  9999,  9,  47,  248, -1081
  58514,  161,  305,  566,  78,  1000,  7999,  9999,  16,  41,  317, -1081
  58596,  161,  305,  566,  108,  1000,  9999,  9999,  7,  32,  212, -979
  58679,  162,  305,  566,  203,  1000,  9999,  9999,  1,  39,  320, -1165
  58764,  162,  305,  567,  144,  1000,  9999,  9999,  14,  49,  285, -1098
  58850,  162,  305,  566,  88,  1000,  7999,  9999,  15,  44,  273, -1037
  58941,  161,  305,  567,  74,  1000,  9999,  9999,  12,  48,  314, -1137
  59024,  162,  305,  567,  157,  1000,  9999,  9999,  1,  58,  290, -1045
  59105,  162,  305,  566,  132,  1000,  9999,  9999,  13,  40,  261, -1085
  59192,  161,  305,  567,  146,  1000,  9999,  9999,  7,  49,  216, -1139
  59278,  162,  305,  567,  97,  1000,  7999,  9999,  16,  47,  312, -958
  59368,  162,  305,  566,  59,  1000,  9999,  9999,  14,  42,  269, -1069
  59458,  161,  305,  567,  106,  1000,  9999,  9999,  5,  49,  263, -1113
  59541,  161,  305,  566,  137,  1000,  9999,  9999,  8,  50,  296, -1043
  59623,  161,  305,  567,  135,  1000,  9999,  9999,  9,  42,  272, -1119
  59709,  162,  305,  566,  143,  1000,  9999,  9999,  9,  38,  293, -1051
  59796,  161,  305,  567,  130,  1000,  9999,  9999,  10,  55,  270, -1070
  59883,  161,  305,  566,  100,  1000,  9999,  9999,  12,  56,  222, -1075
  59967,  158,  305,  566,  138,  1000,  9999,  9999,  6,  49,  289, -1090
  60052,  161,  305,  565,  140,  1000,  9999,  9999,  9,  48,  242, -1029
  60142,  161,  305,  565,  80,  1000,  7999,  9999,  17,  50,  269, -1120
  60226,  162,  305,  566,  149,  1000,  9999,  9999,  1,  49,  260, -1030
  60312,  161,  305,  566,  117,  1000,  9999,  9999,  13,  49,  227, -1093
  60400,  161,  305,  567,  105,  1000,  9999,  9999,  11,  41,  302, -1056
  60487,  161,  305,  566,  165,  1000,  9999,  9999,  3,  41,  269, -1016
  60571,  161,  305,  566,  115,  1000,  9999,  9999,  14,  42,  293, -1064
  60659,  160,  305,  566,  87,  1000,  9999,  9999,  12,  50,  319, -1060
  60744,  161,  305,  565,  168,  1000,  9999,  9999,  1,  50,  240, -1037
  60830,  161,  305,  566,  39,  1000,  7999,  9999,  28,  48,  317, -1070
  60916,  161,  305,  565,  141,  1000,  9999,  9999, -5,  58,  305, -1116
  60999,  161,  305,  565,  146,  1000,  9999,  9999,  11,  48,  277, -1014
  61089,  161,  305,  566,  124,  1000,  9999,  9999,  11,  39,  245, -1074
  61170,  160,  305,  566,  96,  1000,  9999,  9999,  12,  51,  226, -1041
  61261,  162,  305,  565,  106,  1000,  9999,  9999,  10,  52,  337, -1094
  61349,  161,  305,  566,  110,  1000,  9999,  9999,  10,  44,  248, -1081
  61429,  161,  305,  565,  156,  1000,  9999,  9999,  5,  50,  223, -1087
  61513,  161,  305,  566,  165,  1000,  9999,  9999,  8,  40,  270, -1047
  61598,  162,  305,  566,  168,  1000,  9999,  9999,  8,  44,  263, -1018
  61680,  160,  305,  566,  149,  1000,  9999,  9999,  10,  50,  299, -1092
  61768,  161,  305,  565,  119,  1000,  9999,  9999,  11,  34,  245, -1034
  61853,  161,  305,  566,  133,  1000,  9999,  9999,  7,  55,  294, -1115
  61938,  161,  305,  566,  137,  1000,  9999,  9999,  9,  39,  261, -1027
  62026,  162,  305,  566,  85,  1000,  7999,  9999,  15,  15,  259, -1038
  62117,  161,  305,  567,  128,  1000,  9999,  9999,  5,  13,  338, -1112
  62202,  161,  305,  567,  57,  1000,  7999,  9999,  21,  43,  347, -1081
  62291,  162,  305,  566,  55,  1000,  9999,  9999,  10,  45,  210, -1048
  62382,  161,  305,  567,  96,  1000,  9999,  9999,  7,  36,  293, -1048
  62461,  162,  305,  567,  162,  1000,  9999,  9999,  3,  56,  198, -1068
  62550,  162,  305,  567,  116,  1000,  7999,  9999,  15,  40,  283, -1086
  62636,  162,  305,  567,  102,  1000,  9999,  9999,  11,  49,  283, -1059
  62727,  161,  305,  567,  63,  1000,  7999,  9999,  15,  44,  238, -1102
  62813,  161,  305,  567,  55,  1000,  9999,  9999,  11,  53,  303, -1052
  62902,  162,  305,  566,  67,  1000,  9999,  9999,  11,  33,  268, -1107
  62989,  160,  305,  566,  109,  1000,  9999,  9999,  7,  44,  313, -1089
  63076,  160,  305,  566,  58,  1000,  7999,  9999,  17,  47,  248, -1026
  63167,  160,  305,  565,  73,  1000,  9999,  9999,  10,  51,  228, -1123
  63247,  161,  305,  566,  104,  1000,  9999,  9999,  7,  53,  275, -1066
  63335,  160,  305,  566,  156,  1000,  9999,  9999,  5,  50,  255, -1065
  63424,  160,  305,  567,  84,  1000,  7999,  9999,  18,  46,  247, -1046
  63510,  161,  305,  566,  61,  1000,  9999,  9999,  13,  35,  297, -1051
  63596,  160,  305,  567,  130,  1000,  9999,  9999,  2,  50,  214, -1110
  63683,  161,  305,  566,  140,  1000,  9999,  9999,  10,  54,  342, -1110
  63770,  162,  305,  566,  114,  1000,  9999,  9999,  12,  45,  276, -1061
  63855,  161,  305,  566,  127,  1000,  9999,  9999,  7,  45,  230, -1045
  63943,  161,  305,  566,  114,  1000,  9999,  9999,  12,  50,  209, -1067
  64024,  161,  305,  566,  196,  1000,  9999,  9999,  2,  50,  277, -1100
  64109,  161,  305,  566,  88,  1000,  7999,  9999,  21,  47,  238, -1028
  64199,  161,  305,  568,  125,  1000,  9999,  9999,  5,  49,  258, -1077
  64287,  161,  305,  567,  87,  1000,  7999,  9999,  15,  38,  260, -1058
  64374,  161,  305,  566,  49,  1000,  7999,  9999,  15,  46,  232, -1076
  64458,  162,  305,  566,  119,  1000,  9999,  9999,  2,  49,  274, -1093
  64545,  161,  305,  567,  49,  1000,  7999,  9999,  21,  40,  225, -1073
  64632,  160,  305,  567,  145,  1000,  9999,  9999, -3,  47,  274, -1074
  64717,  161,  305,  566,  113,  1000,  7999,  9999,  15,  45,  278, -1115
  64803,  162,  305,  566,  85,  1000,  9999,  9999,  12,  49,  301, -1055
  64895,  161,  305,  566,  101,  1000,  9999,  9999,  8,  49,  283, -1108
  64980,  161,  305,  566,  116,  1000,  9999,  9999,  9,  48,  288, -1110
  65065,  162,  305,  566,  103,  1000,  9999,  9999,  12,  46,  251, -1060
  65153,  161,  305,  565,  128,  1000,  9999,  9999,  7,  52,  263, -997
  65239,  160,  305,  566,  84,  1000,  7999,  9999,  15,  41,  283, -1067
  65330,  161,  305,  566,  83,  1000,  9999,  9999,  10,  35,  229, -1044
  65414,  161,  305,  565,  115,  1000,  9999,  9999,  7,  45,  210, -1147
  65506,  161,  305,  566,  103,  1000,  9999,  9999,  12,  57,  268, -1019
  65591,  160,  305,  565,  156,  1000,  9999,  9999,  3,  49,  231, -1107
  65673,  161,  305,  566,  112,  1000,  9999,  9999,  14,  54,  244, -1094
  65763,  162,  305,  565,  107,  1000,  9999,  9999,  10,  47,  269, -1064
  65850,  161,  305,  565,  142,  1000,  9999,  9999,  6,  41,  276, -1095
  65937,  162,  305,  565,  103,  1000,  7999,  9999,  15,  37,  320, -997
  66022,  162,  305,  566,  109,  1000,  9999,  9999,  9,  79,  151, -1196
  66108,  161,  305,  565,  145,  1000,  9999,  9999,  6,  50,  283, -1086
  66195,  162,  305,  566,  80,  1000,  7999,  9999,  18,  57,  59, -1226
  66280,  161,  305,  566,  167,  1000,  9999,  9999, -1,  21,  347, -1061
  66366,  161,  305,  566,  101,  1000,  7999,  9999,  18,  75,  482, -1003
  66457,  161,  305,  566,  122,  1000,  9999,  9999,  7,  60,  340, -1138
  66544,  160,  305,  566,  103,  1000,  9999,  9999,  12,  61,  390, -949
  66625,  162,  305,  565,  117,  1000,  9999,  9999,  8,  32,  102, -939
  66713,  161,  305,  566,  103,  1000,  9999,  9999,  12,  59,  143, -1087
  66802,  162,  305,  565,  59,  1000,  7999,  9999,  15,  27,  231, -1060
  66883,  161,  305,  566,  120,  1000,  9999,  9999,  3,  81,  271, -1256
  66974,  160,  305,  566,  95,  1000,  9999,  9999,  13,  87,  257, -1373
  67061,  161,  305,  566,  118,  1000,  9999,  9999,  8,  44,  258, -1299
  67144,  161,  305,  565,  125,  1000,  9999,  9999,  10,  47,  300, -816
  67232,  161,  305,  566,  87,  1000,  9999,  9999,  14,  38,  76, -1090
  67319,  160,  305,  566,  144,  1000,  9999,  9999,  2,  74,  163, -1138
  67402,  160,  305,  566,  150,  1000,  9999,  9999,  10,  50,  231, -1190
  67487,  162,  305,  565,  83,  1000,  7999,  9999,  17,  58,  232, -809
  67577,  160,  305,  566,  72,  1000,  9999,  9999,  11,  58,  352, -714
  67664,  162,  305,  564,  54,  1000,  9999,  9999,  13,  42,  269, -968
  67751,  162,  305,  565,  104,  1000,  9999,  9999,  5,  28,  159, -992
  67836,  157,  305,  566,  150,  1000,  9999,  9999,  6,  19,  170, -982
  67926,  160,  305,  565,  42,  1000,  7999,  9999,  25,  27,  32, -1168
  68014,  161,  305,  566,  51,  1000,  9999,  9999,  9,  23,  255, -1127
  68099,  162,  305,  565,  133,  1000,  9999,  9999,  1,  16,  213, -1178
  68180,  161,  305,  566,  120,  1000,  9999,  9999,  13,  29,  343, -947
  68268,  161,  305,  566,  142,  1000,  9999,  9999,  7,  32,  228, -897
  68350,  162,  305,  566,  134,  1000,  9999,  9999,  9,  51,  484, -978
  68435,  162,  305,  566,  151,  1000,  9999,  9999,  8,  57,  96, -1326
  68519,  160,  305,  567,  99,  1000,  7999,  9999,  15,  62,  52, -1273
  68609,  161,  305,  566,  98,  1000,  9999,  9999,  9,  34,  265, -960
  68690,  162,  305,  566,  166,  1000,  9999,  9999,  3,  34,  237, -949
  68778,  162,  305,  566,  93,  1000,  7999,  9999,  19,  22,  149, -1080
  68867,  158,  305,  566,  118,  1000,  9999,  9999,  6,  60,  252, -1283
  68948,  157,  305,  566,  114,  1000,  9999,  9999,  10,  43,  298, -1074
  69038,  162,  305,  565,  107,  1000,  9999,  9999,  11,  35,  356, -950
  69129,  161,  305,  566,  85,  1000,  9999,  9999,  12,  41,  476, -1153
  69212,  164,  305,  566,  104,  1000,  9999,  9999,  8,  66,  214, -1255
  69301,  162,  305,  566,  87,  1000,  9999,  9999,  12,  20,  239, -870
  69387,  161,  305,  566,  114,  1000,  9999,  9999,  7,  20,  263, -961
  69475,  160,  305,  566,  144,  1000,  9999,  9999,  7,  50,  359, -762
  69561,  161,  305,  566,  82,  1000,  7999,  9999,  18,  44,  232, -878
  69646,  162,  305,  565,  9,  1000,  7999,  9999,  20,  48, -21, -1235
  69734,  160,  305,  565,  122,  1000,  9999,  9999, -5,  24,  253, -981
  69820,  161,  305,  565,  101,  1000,  7999,  9999,  16,  59,  267, -1025
  69900,  161,  305,  565,  121,  1000,  9999,  9999,  8,  41,  214, -1146
  69990,  161,  305,  565,  73,  1000,  7999,  9999,  16,  46,  256, -1022
  70077,  161,  305,  564,  103,  1000,  9999,  9999,  6,  46,  204, -1115
  70160,  162,  305,  565,  174,  1000,  9999,  9999,  3,  44,  260, -1055
  70245,  162,  305,  565,  48,  1000,  7999,  9999,  26,  44,  287, -1047
  70333,  161,  305,  564,  146,  1000,  9999,  9999, -3,  41,  231, -1161
  70418,  161,  305,  565,  105,  1000,  7999,  9999,  15,  50,  153, -1183
  70504,  161,  305,  565,  102,  1000,  9999,  9999,  10,  31,  239, -1021
  70591,  160,  305,  566,  126,  1000,  9999,  9999,  8,  48,  267, -1032
  70678,  161,  305,  565,  59,  1000,  7999,  9999,  19,  47,  272, -1032
  70767,  161,  305,  565,  89,  1000,  9999,  9999,  7,  43,  231, -1077
  70852,  162,  305,  565,  105,  1000,  9999,  9999,  9,  49,  268, -1083
  70940,  160,  305,  566,  109,  1000,  9999,  9999,  10,  53,  273, -1089
  71022,  162,  305,  567,  172,  1000,  9999,  9999,  3,  37,  235, -1047
  71107,  161,  305,  567,  131,  1000,  9999,  9999,  13,  46,  247, -1046
  71195,  161,  305,  566,  123,  1000,  9999,  9999,  10,  48,  291, -1064
  71280,  161,  305,  566,  136,  1000,  9999,  9999,  9,  38,  290, -1100
  71366,  162,  305,  565,  50,  1000,  7999,  9999,  21,  47,  207, -1068
  71456,  161,  305,  566,  125,  1000,  9999,  9999,  0,  44,  324, -1039
  71543,  161,  305,  567,  75,  1000,  7999,  9999,  17,  52,  252, -1029
  71633,  161,  305,  566,  64,  1000,  9999,  9999,  12,  46,  252, -1125
  71714,  161,  305,  565,  118,  1000,  9999,  9999,  4,  50,  279, -1110
  71801,  162,  305,  565,  163,  1000,  9999,  9999,  6,  42,  218, -1086
  71892,  162,  305,  566,  84,  1000,  7999,  9999,  18,  39,  369, -1075
  71973,  161,  305,  566,  110,  1000,  9999,  9999,  6,  41,  295, -1121
  72063,  161,  305,  566,  99,  1000,  9999,  9999,  12,  56,  228, -1066
  72150,  160,  305,  565,  127,  1000,  9999,  9999,  7,  40,  247, -1107
  72237,  161,  305,  566,  132,  1000,  9999,  9999,  9,  40,  245, -1095
  72322,  161,  305,  566,  162,  1000,  9999,  9999,  6,  43,  274, -1020
  72406,  161,  305,  566,  128,  1000,  9999,  9999,  12,  51,  241, -1119
  72491,  161,  305,  566,  185,  1000,  9999,  9999,  4,  46,  319, -1046
  72572,  160,  305,  566,  89,  1000,  7999,  9999,  20,  40,  247, -1074
  72662,  161,  305,  566,  79,  1000,  9999,  9999,  11,  46,  238, -1090
  72749,  162,  305,  566,  145,  1000,  9999,  9999,  3,  50,  313, -1067
  72836,  161,  305,  565,  53,  1000,  7999,  9999,  23,  49,  258, -1096
  72921,  161,  305,  565,  95,  1000,  9999,  9999,  5,  54,  241, -1099
  73005,  161,  305,  566,  127,  1000,  9999,  9999,  7,  48,  272, -1044
  73095,  161,  305,  565,  121,  1000,  9999,  9999,  11,  42,  241, -1095
  73179,  162,  305,  566,  82,  1000,  9999,  9999,  14,  46,  222, -1111
  73264,  161,  305,  566,  150,  1000,  9999,  9999,  2,  37,  250, -1087
  73349,  161,  305,  566,  117,  1000,  9999,  9999,  14,  39,  288, -1106
  73430,  161,  305,  565,  147,  1000,  9999,  9999,  6,  49,  233, -1034
  73517,  160,  305,  566,  143,  1000,  9999,  9999,  9,  44,  270, -1091
  73603,  160,  305,  566,  95,  1000,  9999,  9999,  14,  43,  282, -1081
  73689,  161,  305,  566,  156,  1000,  9999,  9999,  2,  52,  293, -1060
  73779,  162,  305,  566,  94,  1000,  7999,  9999,  17,  50,  250, -1100
  73866,  161,  305,  566,  81,  1000,  9999,  9999,  10,  44,  286, -1077
  73956,  162,  305,  565,  97,  1000,  9999,  9999,  10,  53,  221, -1103
  74041,  162,  305,  565,  105,  1000,  9999,  9999,  10,  51,  232, -1084
  74128,  161,  305,  565,  97,  1000,  9999,  9999,  11,  47,  265, -1092
  74215,  160,  305,  565,  129,  1000,  9999,  9999,  6,  55,  285, -1086
  74302,  161,  305,  565,  108,  1000,  9999,  9999,  13,  56,  297, -1056
  74390,  162,  305,  566,  77,  1000,  9999,  9999,  13,  41,  259, -1077
  74477,  162,  305,  566,  50,  1000,  9999,  9999,  14,  49,  252, -1054
  74560,  161,  305,  566,  194,  1000,  9999,  9999, -6,  41,  219, -1093
  74645,  160,  305,  565,  117,  1000,  7999,  9999,  18,  53,  189, -1013
  74729,  161,  305,  565,  165,  1000,  9999,  9999,  3,  40,  295, -1047
  74811,  160,  305,  567,  186,  1000,  9999,  9999,  7,  55,  271, -1066
  74892,  161,  305,  567,  151,  1000,  9999,  9999,  11,  53,  246, -1103
  74975,  162,  305,  567,  122,  1000,  9999,  9999,  11,  47,  334, -1070
  75058,  161,  305,  567,  141,  1000,  9999,  9999,  7,  41,  255, -1125
  75142,  162,  305,  567,  178,  1000,  9999,  9999,  7,  39,  312, -1051
  75229,  161,  305,  567,  78,  1000,  7999,  9999,  21,  49,  252, -1082
  75316,  162,  305,  566,  54,  1000,  9999,  9999,  12,  38,  284, -1092
  75405,  162,  305,  567,  126,  1000,  9999,  9999,  2,  45,  241, -1059
  75488,  162,  305,  565,  145,  1000,  9999,  9999,  9,  50,  257, -1037
  75575,  161,  305,  566,  58,  1000,  7999,  9999,  20,  46,  304, -1079
  75659,  162,  305,  567,  116,  1000,  9999,  9999,  2,  47,  243, -1101
  75740,  161,  305,  567,  178,  1000,  9999,  9999,  5,  38,  231, -1071
  75829,  162,  305,  566,  148,  1000,  9999,  9999,  12,  42,  288, -1076
  75910,  162,  305,  566,  128,  1000,  9999,  9999,  10,  37,  301, -1024
  75996,  162,  305,  566,  79,  1000,  7999,  9999,  15,  49,  291, -1084
  76087,  160,  305,  567,  76,  1000,  9999,  9999,  10,  49,  320, -1096
  76173,  161,  305,  566,  170,  1000,  9999,  9999,  0,  44,  241, -1037
  76259,  162,  305,  567,  98,  1000,  7999,  9999,  18,  43,  289, -1074
  76342,  160,  305,  567,  189,  1000,  9999,  9999, -1,  37,  244, -1121
  76432,  160,  305,  566,  68,  1000,  7999,  9999,  24,  48,  306, -1093
  76517,  161,  305,  567,  38,  1000,  9999,  9999,  14,  43,  269, -1081
  76607,  161,  305,  567,  56,  1000,  9999,  9999,  10,  55,  243, -1079
  76695,  160,  305,  567,  79,  1000,  9999,  9999,  10,  55,  260, -1041
  76781,  161,  305,  567,  183,  1000,  9999,  9999, -1,  48,  228, -1092
  76862,  161,  305,  567,  184,  1000,  9999,  9999,  10,  47,  289, -1052
  76945,  161,  305,  566,  179,  1000,  9999,  9999,  8,  38,  257, -1044
  77027,  161,  305,  565,  128,  1000,  9999,  9999,  13,  51,  238, -1075
  77113,  164,  305,  566,  92,  1000,  9999,  9999,  13,  50,  310, -1103
  77201,  161,  305,  567,  142,  1000,  9999,  9999,  3,  50,  290, -1106
  77291,  162,  305,  567,  110,  1000,  9999,  9999,  13,  49,  272, -1123
  77375,  161,  305,  566,  123,  1000,  9999,  9999,  9,  41,  281, -1060
  77463,  161,  305,  567,  141,  1000,  9999,  9999,  8,  46,  282, -1054
  77544,  160,  305,  566,  141,  1000,  9999,  9999,  9,  47,  307, -1037
  77630,  161,  305,  567,  115,  1000,  9999,  9999,  11,  41,  262, -1068
  77716,  161,  305,  567,  55,  1000,  7999,  9999,  17,  50,  281, -1099
  77807,  161,  305,  567,  69,  1000,  9999,  9999,  10,  45,  295, -1069
  77893,  162,  305,  567,  109,  1000,  9999,  9999,  7,  45,  261, -1117
  77975,  160,  305,  567,  167,  1000,  9999,  9999,  4,  46,  273, -1098
  78058,  161,  305,  568,  130,  1000,  9999,  9999,  13,  48,  275, -1032
  78149,  161,  305,  566,  83,  1000,  9999,  9999,  13,  45,  232, -1068
  78233,  162,  305,  567,  53,  1000,  9999,  9999,  14,  48,  226, -1078
  78323,  161,  305,  567,  77,  1000,  9999,  9999,  9,  43,  265, -1050
  78410,  161,  305,  566,  38,  1000,  7999,  9999,  18,  38,  223, -1052
  78501,  162,  305,  565,  97,  1000,  9999,  9999,  4,  51,  310, -1051
  78582,  161,  305,  566,  131,  1000,  9999,  9999,  7,  42,  249, -1081
  78673,  160,  305,  566,  79,  1000,  7999,  9999,  16,  42,  309, -1088
  78760,  161,  305,  566,  58,  1000,  9999,  9999,  13,  48,  234, -1056
  78840,  161,  305,  567,  201,  1000,  9999,  9999, -5,  53,  247, -1074
  78923,  162,  305,  567,  167,  1000,  9999,  9999,  14,  48,  265, -1083
  79010,  161,  305,  567,  120,  1000,  9999,  9999,  13,  44,  186, -1074
  79097,  162,  305,  567,  139,  1000,  9999,  9999,  7,  50,  284, -1083
  79177,  160,  305,  566,  137,  1000,  9999,  9999,  9,  38,  258, -1093
  79260,  161,  305,  566,  652,  1000,  9999,  9999, -2,  53,  261, -1026
  79351,  162,  305,  566,  111,  1000,  7999,  9999,  23,  44,  250, -1062
  79429,  162,  305,  567,  180,  1000,  9999,  9999,  1,  47,  257, -1045
  79515,  162,  305,  566,  18,  1000,  7999,  9999,  30,  45,  258, -1075
  79606,  162,  305,  567,  89,  1000,  9999,  9999, -1,  41,  270, -1087
  79690,  161,  305,  567,  40,  1000,  7999,  9999,  18,  47,  240, -1089
  79777,  160,  305,  567,  163,  1000,  9999,  9999, -4,  47,  303, -1045
  79868,  160,  305,  566,  45,  1000,  7999,  9999,  27,  47,  285, -1056
  79953,  161,  305,  566,  94,  1000,  9999,  9999,  2,  46,  240, -1085
  80043,  161,  305,  566,  46,  1000,  7999,  9999,  18,  44,  272, -1057
  80131,  161,  305,  567,  103,  1000,  9999,  9999,  4,  42,  227, -1102
  80216,  161,  305,  566,  160,  1000,  9999,  9999,  6,  41,  262, -1126
  80298,  161,  305,  566,  150,  1000,  9999,  9999,  10,  42,  303, -1107
  80385,  161,  305,  566,  94,  1000,  7999,  9999,  16,  50,  282, -1121
  80476,  160,  305,  566,  83,  1000,  9999,  9999,  10,  49,  246, -1059
  80561,  161,  305,  566,  139,  1000,  9999,  9999,  4,  51,  304, -1042
  80639,  160,  305,  566,  153,  1000,  9999,  9999,  9,  50,  250, -1079
  80730,  161,  305,  566,  69,  1000,  7999,  9999,  20,  42,  246, -1112
  80811,  162,  305,  565,  113,  1000,  9999,  9999,  3,  40,  248, -1078
  80901,  162,  305,  566,  69,  1000,  7999,  9999,  18,  60,  288, -1111
  80989,  161,  305,  566,  110,  1000,  9999,  9999,  4,  53,  235, -1100
  81074,  160,  305,  566,  59,  1000,  7999,  9999,  18,  48,  245, -1057
  81163,  161,  305,  566,  118,  1000,  9999,  9999,  3,  50,  267, -1135
  81250,  161,  305,  566,  138,  1000,  9999,  9999,  8,  44,  284, -1065
  81338,  161,  305,  567,  48,  1000,  7999,  9999,  21,  39,  268, -1098
  81428,  161,  305,  567,  119,  1000,  9999,  9999,  0,  49,  247, -1080
  81508,  161,  305,  567,  107,  1000,  9999,  9999,  13,  34,  254, -1107
  81595,  162,  305,  566,  159,  1000,  9999,  9999,  4,  56,  241, -1099
  81682,  161,  305,  566,  107,  1000,  7999,  9999,  16,  48,  319, -1109
  81767,  162,  305,  566,  117,  1000,  9999,  9999,  8,  44,  276, -1067
  81853,  161,  305,  566,  100,  1000,  9999,  9999,  11,  47,  264, -1047
  81940,  162,  305,  565,  153,  1000,  9999,  9999,  4,  45,  256, -1060
  82031,  161,  305,  566,  63,  1000,  7999,  9999,  21,  48,  295, -1111
  82115,  163,  305,  567,  67,  1000,  9999,  9999,  10,  43,  223, -1067
  82205,  161,  305,  566,  50,  1000,  9999,  9999,  13,  41,  295, -1053
  82292,  160,  305,  565,  110,  1000,  9999,  9999,  3,  48,  281, -1032
  82378,  162,  305,  566,  88,  1000,  9999,  9999,  14,  51,  235, -1110
  82464,  160,  305,  566,  129,  1000,  9999,  9999,  5,  53,  291, -1127
  82551,  160,  305,  567,  92,  1000,  7999,  9999,  15,  44,  268, -1031
  82637,  161,  305,  566,  90,  1000,  9999,  9999,  10,  47,  271, -1084
  82726,  162,  305,  566,  116,  1000,  9999,  9999,  7,  55,  305, -1058
  82810,  161,  305,  566,  132,  1000,  9999,  9999,  9,  53,  219, -1087
  82891,  160,  305,  566,  110,  1000,  9999,  9999,  11,  53,  274, -1039
  82977,  162,  305,  566,  105,  1000,  9999,  9999,  10,  53,  281, -1075
  83064,  161,  305,  566,  166,  1000,  9999,  9999,  3,  35,  249, -1066
  83147,  162,  305,  566,  124,  1000,  9999,  9999,  14,  49,  291, -1058
  83235,  162,  305,  565,  97,  1000,  9999,  9999,  12,  51,  289, -1051
  83325,  162,  305,  566,  50,  1000,  7999,  9999,  16,  49,  248, -1059
  83413,  161,  305,  566,  67,  1000,  9999,  9999,  10,  55,  293, -1073
  83496,  160,  305,  567,  197,  1000,  9999,  9999, -4,  49,  313, -1063
  83580,  161,  305,  566,  130,  1000,  7999,  9999,  16,  51,  283, -1069
  83668,  161,  305,  566,  74,  1000,  7999,  9999,  16,  46,  269, -1076
  83757,  161,  305,  566,  151,  1000,  9999,  9999,  0,  52,  225, -1043
  83838,  161,  305,  566,  124,  1000,  9999,  9999,  14,  41,  279, -1078
  83925,  161,  305,  566,  96,  1000,  9999,  9999,  12,  50,  294, -1109
  84017,  161,  305,  566,  53,  1000,  9999,  9999,  14,  43,  250, -1080
  84102,  162,  305,  566,  114,  1000,  9999,  9999,  3,  46,  269, -1091
  84191,  162,  305,  566,  70,  1000,  7999,  9999,  17,  51,  215, -1063
  84281,  162,  305,  567,  64,  1000,  9999,  9999,  12,  50,  230, -1028
  84364,  162,  305,  566,  166,  1000,  9999,  9999, -1,  43,  276, -1079
  84451,  162,  305,  565,  150,  1000,  9999,  9999,  11,  51,  261, -1085
  84532,  162,  305,  565,  154,  1000,  9999,  9999,  9,  45,  246, -1060
  84619,  161,  305,  565,  101,  1000,  9999,  9999,  14,  37,  232, -1085
  84702,  161,  305,  566,  131,  1000,  9999,  9999,  6,  37,  270, -1100
  84790,  161,  305,  567,  132,  1000,  9999,  9999,  9,  37,  260, -1079
  84874,  162,  305,  566,  94,  1000,  9999,  9999,  14,  50,  286, -1063
  84959,  162,  305,  566,  149,  1000,  9999,  9999,  4,  48,  243, -1081
  85045,  161,  305,  565,  112,  1000,  9999,  9999,  14,  52,  237, -1080
  85132,  160,  305,  566,  99,  1000,  9999,  9999,  11,  46,  223, -1099
  85215,  161,  305,  566,  129,  1000,  9999,  9999,  7,  48,  245, -1082
  85299,  161,  305,  566,  100,  1000,  9999,  9999,  13,  40,  270, -1076
  85386,  161,  305,  566,  59,  1000,  7999,  9999,  15,  40,  198, -1080
  85472,  161,  305,  567,  103,  1000,  9999,  9999,  6,  45,  237, -1095
  85550,  161,  305,  566,  180,  1000,  9999,  9999,  3,  43,  237, -1101
  85642,  160,  305,  567,  56,  1000,  7999,  9999,  25,  41,  278, -1105
  85727,  161,  305,  567,  69,  1000,  9999,  9999,  8,  46,  300, -1082
  85818,  161,  305,  566,  139,  1000,  9999,  9999,  3,  51,  289, -1108
  85903,  162,  305,  567,  104,  1000,  7999,  9999,  15,  56,  292, -1071
  85987,  162,  305,  566,  122,  1000,  9999,  9999,  8,  54,  249, -1067
  86073,  162,  305,  566,  146,  1000,  9999,  9999,  8,  37,  231, -1067
  86157,  161,  305,  566,  65,  1000,  7999,  9999,  20,  42,  254, -1040
  86249,  161,  305,  567,  122,  1000,  9999,  9999,  2,  43,  247, -1098
  86330,  161,  305,  567,  111,  1000,  9999,  9999,  11,  50,  288, -1061
  86420,  161,  305,  566,  84,  1000,  9999,  9999,  12,  39,  275, -1035
  86502,  163,  305,  566,  123,  1000,  9999,  9999,  7,  53,  295, -1116
  86585,  161,  305,  566,  142,  1000,  9999,  9999,  8,  56,  259, -1026
  86670,  162,  305,  566,  82,  1000,  7999,  9999,  16,  53,  261, -1078
  86757,  161,  305,  566,  142,  1000,  9999,  9999,  3,  45,  261, -1080
  86844,  161,  305,  567,  97,  1000,  7999,  9999,  16,  52,  247, -1085
  86933,  161,  305,  565,  76,  1000,  9999,  9999,  12,  50,  286, -1087
  87019,  162,  305,  566,  49,  1000,  9999,  9999,  14,  54,  236, -1070
  87106,  162,  305,  566,  121,  1000,  9999,  9999,  2,  40,  279, -1068
  87193,  161,  305,  567,  103,  1000,  9999,  9999,  13,  42,  289, -1070
  87277,  162,  305,  566,  104,  1000,  9999,  9999,  10,  42,  273, -1123
  87367,  161,  305,  566,  126,  1000,  9999,  9999,  9,  37,  285, -1090
  87447,  160,  305,  565,  146,  1000,  9999,  9999,  7,  39,  283, -1068
  87538,  161,  305,  566,  135,  1000,  9999,  9999,  11,  45,  280, -1073
  87618,  161,  305,  567,  138,  1000,  9999,  9999,  9,  47,  289, -1100
  87705,  160,  305,  566,  119,  1000,  9999,  9999,  10,  47,  210, -1088
  87787,  161,  305,  567,  126,  1000,  9999,  9999,  10,  48,  262, -1056
  87873,  160,  305,  567,  133,  1000,  9999,  9999,  9,  53,  310, -1085
  87963,  160,  305,  567,  78,  1000,  7999,  9999,  17,  39,  190, -1085
  88050,  160,  305,  567,  95,  1000,  9999,  9999,  7,  33,  256, -1089
  88135,  161,  305,  567,  134,  1000,  9999,  9999,  7,  53,  299, -1029
  88225,  161,  305,  567,  64,  1000,  7999,  9999,  19,  55,  216, -1083
  88312,  160,  305,  566,  73,  1000,  9999,  9999,  9,  52,  249, -1088
  88398,  161,  305,  566,  53,  1000,  9999,  9999,  13,  53,  260, -1060
  88483,  161,  305,  567,  130,  1000,  9999,  9999,  1,  47,  275, -1049
  88571,  161,  305,  566,  148,  1000,  9999,  9999,  9,  59,  275, -1072
  88658,  161,  305,  567,  142,  1000,  9999,  9999,  9,  44,  236, -1064
  88742,  161,  305,  567,  154,  1000,  9999,  9999,  8,  51,  238, -1066
  88828,  162,  305,  566,  129,  1000,  9999,  9999,  10,  56,  196, -1058
  88912,  161,  305,  566,  155,  1000,  9999,  9999,  7,  46,  315, -1085
  88996,  162,  305,  566,  97,  1000,  7999,  9999,  16,  42,  284, -1049
  89087,  162,  305,  565,  92,  1000,  9999,  9999,  10,  41,  298, -1033
  89174,  161,  305,  566,  34,  1000,  7999,  9999,  18,  59,  301, -1032
  89261,  161,  305,  565,  148,  1000,  9999,  9999, -3,  53,  230, -1092
  89345,  161,  305,  566,  125,  1000,  9999,  9999,  14,  51,  246, -1046
  89432,  161,  305,  566,  123,  1000,  9999,  9999,  10,  36,  262, -1054
  89519,  161,  305,  566,  98,  1000,  9999,  9999,  11,  57,  294, -1062
  89604,  161,  305,  565,  136,  1000,  9999,  9999,  6,  49,  302, -1066
  89690,  161,  305,  566,  86,  1000,  7999,  9999,  16,  34,  251, -1084
  89782,  160,  305,  565,  130,  1000,  9999,  9999,  3,  49,  233, -1087
  89864,  162,  305,  566,  145,  1000,  9999,  9999,  8,  43,  242, -1107
  89944,  161,  305,  565,  156,  1000,  9999,  9999,  8,  50,  261, -1101
  90031,  160,  305,  566,  87,  1000,  7999,  9999,  17,  41,  275, -1118
  90122,  161,  305,  565,  93,  1000,  9999,  9999,  10,  42,  288, -1022
  90207,  162,  305,  565,  66,  1000,  7999,  9999,  15,  41,  213, -1049
  90293,  161,  305,  566,  128,  1000,  9999,  9999,  2,  24,  299, -1070
  90380,  164,  305,  566,  79,  1000,  7999,  9999,  17,  39,  249, -1047
  90467,  162,  305,  565,  106,  1000,  9999,  9999,  6,  52,  297, -1099
  90548,  162,  305,  565,  138,  1000,  9999,  9999,  8,  49,  292, -1104
  90639,  162,  305,  567,  139,  1000,  9999,  9999,  9,  46,  301, -1037
  90721,  162,  305,  565,  129,  1000,  9999,  9999,  10,  43,  268, -1098
  90806,  161,  305,  566,  127,  1000,  9999,  9999,  9,  50,  264, -1101
  90890,  161,  305,  566,  161,  1000,  9999,  9999,  7,  52,  243, -1014
  90975,  162,  305,  566,  149,  1000,  9999,  9999,  9,  41,  239, -1082
  91057,  162,  305,  566,  153,  1000,  9999,  9999,  9,  47,  214, -1126
  91141,  160,  305,  566,  123,  1000,  9999,  9999,  12,  53,  289, -1058
  91222,  162,  305,  565,  129,  1000,  9999,  9999,  9,  51,  264, -1123
  91307,  161,  305,  565,  128,  1000,  9999,  9999,  9,  37,  254, -1089
  91395,  161,  305,  565,  125,  1000,  9999,  9999,  10,  47,  302, -1092
  91477,  161,  305,  565,  154,  1000,  9999,  9999,  6,  68,  221, -1035
  91562,  161,  305,  565,  96,  1000,  7999,  9999,  16,  35,  237, -1093
  91650,  160,  305,  566,  84,  1000,  9999,  9999,  10,  56,  286, -1130
  91735,  161,  305,  567,  136,  1000,  9999,  9999,  4,  42,  177, -1042
  91817,  161,  305,  567,  145,  1000,  9999,  9999,  8,  55,  308, -1040
  91904,  161,  305,  566,  163,  1000,  9999,  9999,  8,  44,  328, -1114
  91990,  161,  305,  566,  96,  1000,  7999,  9999,  17,  41,  324, -1108
  92071,  162,  305,  567,  154,  1000,  9999,  9999,  2,  39,  243, -983
  92154,  160,  305,  567,  137,  1000,  9999,  9999,  11,  41,  237, -1096
  92245,  160,  305,  566,  96,  1000,  9999,  9999,  14,  50,  290, -1060
  92330,  162,  305,  565,  39,  1000,  7999,  9999,  18,  35,  318, -1121
  92416,  161,  305,  566,  139,  1000,  9999,  9999, -3,  47,  254, -1061
  92503,  161,  305,  565,  61,  1000,  7999,  9999,  22,  49,  263, -1078
  92590,  162,  305,  565,  153,  1000,  9999,  9999, -2,  29,  991, -1326
  92678,  162,  305,  565,  82,  1000,  7999,  9999,  19,  9,  40, -1208
  92765,  162,  305,  565,  130,  1000,  9999,  9999,  4,  37,  189, -1142
  92852,  161,  305,  566,  122,  1000,  9999,  9999,  11,  52,  198, -1056
  92937,  161,  305,  565,  77,  1000,  7999,  9999,  15,  56,  308, -1096
  93027,  161,  305,  565,  121,  1000,  9999,  9999,  5,  42,  259, -1024
  93114,  161,  305,  565,  59,  1000,  7999,  9999,  19,  30,  290, -1106
  93197,  162,  305,  565,  198,  1000,  9999,  9999, -6,  54,  318, -1121
  93277,  160,  305,  565,  174,  1000,  9999,  9999,  12,  38,  225, -1135
  93364,  160,  305,  566,  89,  1000,  7999,  9999,  18,  59,  247, -1095
  93451,  161,  305,  566,  132,  1000,  9999,  9999,  4,  47,  221, -1050
  93540,  161,  305,  566,  84,  1000,  7999,  9999,  15,  48,  259, -1078
  93623,  162,  305,  566,  138,  1000,  9999,  9999,  4,  39,  267, -1016
  93710,  160,  305,  566,  164,  1000,  9999,  9999,  7,  54,  264, -1120
  93799,  162,  305,  566,  86,  1000,  7999,  9999,  18,  40,  309, -1064
  93884,  162,  305,  566,  66,  1000,  9999,  9999,  12,  49,  276, -1039
  93968,  157,  305,  566,  195,  1000,  9999,  9999, -5,  45,  242, -1116
  94054,  162,  305,  565,  140,  1000,  7999,  9999,  16,  44,  278, -1043
  94139,  162,  305,  566,  73,  1000,  7999,  9999,  17,  45,  323, -1091
  94230,  161,  305,  566,  115,  1000,  9999,  9999,  4,  51,  229, -1093
  94313,  162,  305,  565,  129,  1000,  9999,  9999,  9,  35,  285, -1065
  94397,  162,  305,  566,  147,  1000,  9999,  9999,  8,  57,  215, -1074
  94484,  162,  305,  566,  127,  1000,  9999,  9999,  11,  63,  286, -1108
  94572,  161,  305,  566,  94,  1000,  9999,  9999,  14,  43,  236, -1075
  94657,  161,  305,  565,  107,  1000,  9999,  9999,  9,  42,  246, -1099
  94746,  162,  305,  566,  79,  1000,  9999,  9999,  14,  44,  291, -1088
  94829,  161,  305,  566,  91,  1000,  9999,  9999,  9,  50,  287, -1070
  94920,  161,  305,  565,  69,  1000,  9999,  9999,  14,  41,  274, -1112
  95001,  162,  305,  565,  161,  1000,  9999,  9999, -1,  51,  239, -1060
  95088,  161,  305,  566,  99,  1000,  7999,  9999,  17,  35,  253, -1087
  95175,  161,  305,  564,  65,  1000,  9999,  9999,  14,  46,  280, -1064
  95261,  162,  305,  566,  110,  1000,  9999,  9999,  5,  39,  258, -1093
  95345,  162,  305,  565,  68,  1000,  7999,  9999,  18,  47,  285, -1120
  95437,  162,  305,  566,  57,  1000,  9999,  9999,  11,  58,  301, -1073
  95522,  161,  305,  566,  164,  1000,  9999,  9999, -2,  43,  271, -1074
  95608,  161,  305,  565,  113,  1000,  7999,  9999,  17,  40,  281, -1066
  95694,  160,  305,  565,  122,  1000,  9999,  9999,  8,  50,  310, -1084
  95781,  162,  305,  566,  86,  1000,  9999,  9999,  14,  53,  257, -1057
  95867,  161,  305,  565,  97,  1000,  9999,  9999,  9,  41,  226, -1032
  95952,  162,  305,  566,  133,  1000,  9999,  9999,  6,  47,  289, -1060
  96044,  161,  305,  567,  24,  1000,  7999,  9999,  26,  46,  302, -1084
  96129,  162,  305,  566,  36,  1000,  9999,  9999,  9,  52,  316, -1068
  96220,  161,  305,  566,  85,  1000,  9999,  9999,  7,  60,  251, -1049
  96305,  161,  305,  566,  87,  1000,  9999,  9999,  12,  56,  269, -1050
  96396,  161,  305,  565,  85,  1000,  9999,  9999,  11,  37,  300, -1098
  96487,  161,  305,  566,  32,  1000,  7999,  9999,  18,  52,  248, -1082
  96571,  162,  305,  566,  111,  1000,  9999,  9999,  0,  43,  289, -1105
  96653,  160,  305,  566,  139,  1000,  9999,  9999,  9,  45,  274, -1078
  96740,  161,  305,  564,  142,  1000,  9999,  9999,  9,  46,  250, -1051
  96827,  162,  305,  566,  99,  1000,  9999,  9999,  14,  42,  303, -1084
  96916,  162,  305,  565,  69,  1000,  9999,  9999,  14,  39,  225, -1111
  97004,  161,  305,  565,  76,  1000,  9999,  9999,  10,  52,  221, -1075
  97089,  161,  305,  565,  111,  1000,  9999,  9999,  7,  40,  253, -1059
  97174,  162,  305,  566,  147,  1000,  9999,  9999,  7,  45,  265, -1065
  97261,  162,  305,  566,  32,  1000,  7999,  9999,  25,  44,  267, -1054
  97348,  161,  305,  565,  123,  1000,  9999,  9999, -2,  47,  251, -1105
  97435,  161,  305,  565,  170,  1000,  9999,  9999,  6,  42,  224, -1099
  97519,  161,  305,  566,  109,  1000,  7999,  9999,  17,  43,  247, -1056
  97606,  160,  305,  565,  90,  1000,  9999,  9999,  12,  42,  302, -1075
  97693,  161,  305,  566,  148,  1000,  9999,  9999,  3,  45,  246, -1035
  97774,  161,  305,  565,  167,  1000,  9999,  9999,  9,  58,  232, -1094
  97858,  160,  305,  565,  129,  1000,  9999,  9999,  12,  39,  276, -1040
  97943,  160,  305,  566,  150,  1000,  9999,  9999,  7,  42,  244, -1072
  98024,  161,  305,  565,  112,  1000,  9999,  9999,  13,  40,  268, -1094
  98115,  160,  305,  565,  129,  1000,  9999,  9999,  7,  53,  238, -1071
  98202,  161,  305,  564,  74,  1000,  7999,  9999,  17,  54,  275, -1042
  98291,  162,  305,  566,  103,  1000,  9999,  9999,  6,  47,  276, -1105
  98377,  162,  305,  565,  85,  1000,  9999,  9999,  13,  37,  246, -1072
  98468,  162,  305,  564,  93,  1000,  9999,  9999,  10,  40,  254, -1060
  98559,  161,  305,  564,  92,  1000,  9999,  9999,  11,  57,  300, -1100
  98639,  162,  305,  564,  129,  1000,  9999,  9999,  6,  39,  268, -1048
  98722,  161,  305,  564,  161,  1000,  9999,  9999,  7,  43,  215, -1058
  98809,  161,  305,  565,  92,  1000,  7999,  9999,  18,  50,  254, -1067
  98896,  162,  305,  566,  155,  1000,  9999,  9999,  2,  37,  314, -1042
  98980,  161,  305,  565,  86,  1000,  7999,  9999,  18,  51,  311, -1063
  99063,  161,  305,  565,  114,  1000,  9999,  9999,  6,  44,  189, -1088
  99154,  161,  305,  565,  58,  1000,  7999,  9999,  17,  37,  264, -1096
  99238,  162,  305,  565,  62,  1000,  9999,  9999,  11,  47,  278, -1049
  99325,  161,  305,  565,  162,  1000,  9999,  9999, -2,  52,  280, -1096
  99412,  160,  305,  564,  144,  1000,  9999,  9999,  12,  44,  234, -1054
  99499,  161,  305,  565,  85,  1000,  7999,  9999,  17,  57,  249, -1060
  99587,  161,  305,  565,  127,  1000,  9999,  9999,  4,  52,  264, -1062
  99671,  162,  305,  564,  111,  1000,  9999,  9999,  12,  37,  256, -1075
  99756,  161,  305,  565,  120,  1000,  9999,  9999,  10,  35,  332, -1092
  99842,  161,  305,  565,  113,  1000,  9999,  9999,  10,  34,  288, -1064
  99929,  161,  305,  565,  141,  1000,  9999,  9999,  8,  47,  311, -1075
  100016,  160,  305,  565,  124,  1000,  9999,  9999,  12,  47,  251, -1061
  100096,  161,  305,  565,  134,  1000,  9999,  9999,  9,  37,  213, -1096
  100183,  160,  305,  565,  96,  1000,  9999,  9999,  13,  51,  281, -1112
  100270,  161,  305,  566,  151,  1000,  9999,  9999,  4,  43,  251, -1069
  100355,  162,  305,  566,  96,  1000,  7999,  9999,  17,  47,  276, -1109
  100441,  161,  305,  565,  117,  1000,  9999,  9999,  6,  46,  250, -1042
  100528,  161,  305,  565,  117,  1000,  9999,  9999,  10,  57,  258, -1049
  100610,  162,  305,  566,  176,  1000,  9999,  9999,  4,  52,  242, -1026
  100699,  162,  305,  565,  120,  1000,  7999,  9999,  16,  23,  203, -1053
  100782,  161,  305,  565,  109,  1000,  9999,  9999,  11,  33,  293, -1080
  100866,  161,  305,  565,  159,  1000,  9999,  9999,  4,  44,  292, -1021
  100954,  161,  305,  564,  113,  1000,  9999,  9999,  14,  58,  258, -1094
  101041,  161,  305,  565,  103,  1000,  9999,  9999,  11,  55,  288, -1069
  101132,  161,  305,  565,  84,  1000,  9999,  9999,  12,  39,  224, -1037
  101217,  162,  305,  565,  77,  1000,  9999,  9999,  11,  45,  265, -1117
  101306,  162,  305,  565,  118,  1000,  9999,  9999,  6,  40,  259, -1079
  101394,  162,  305,  565,  111,  1000,  9999,  9999,  11,  47,  288, -1027
  101483,  161,  305,  566,  70,  1000,  7999,  9999,  15,  43,  248, -1099
  101570,  161,  305,  565,  40,  1000,  9999,  9999,  14,  46,  240, -1108
  101655,  162,  305,  565,  176,  1000,  9999,  9999, -5,  47,  256, -1043
  101743,  160,  305,  564,  139,  1000,  7999,  9999,  15,  43,  285, -1113
  101828,  162,  305,  565,  59,  1000,  7999,  9999,  19,  36,  308, -1094
  101917,  161,  305,  565,  133,  1000,  9999,  9999,  1,  49,  259, -1042
  102007,  160,  305,  566,  88,  1000,  7999,  9999,  16,  49,  237, -1082
  102095,  161,  305,  566,  125,  1000,  9999,  9999,  6,  39,  288, -1054
  102177,  161,  305,  566,  179,  1000,  9999,  9999,  6,  42,  278, -1122
  102262,  162,  305,  565,  59,  1000,  7999,  9999,  24,  36,  260, -1069
  102354,  162,  305,  565,  63,  1000,  9999,  9999,  10,  44,  237, -1029
  102439,  160,  305,  564,  25,  1000,  7999,  9999,  16,  55,  285, -1073
  102524,  161,  305,  565,  124,  1000,  9999,  9999, -1,  43,  258, -1106
  102611,  162,  305,  565,  98,  1000,  9999,  9999,  14,  53,  159, -1084
  102702,  161,  305,  565,  79,  1000,  9999,  9999,  13,  55,  240, -1084
  102789,  162,  305,  565,  61,  1000,  9999,  9999,  13,  51,  258, -1037
  102877,  162,  305,  566,  70,  1000,  9999,  9999,  11,  41,  219, -1095
  102963,  161,  305,  566,  80,  1000,  9999,  9999,  11,  45,  177, -1087
  103055,  161,  305,  565,  82,  1000,  9999,  9999,  11,  52,  254, -1029
  103136,  161,  305,  565,  150,  1000,  9999,  9999,  3,  48,  310, -1086
  103222,  162,  305,  565,  165,  1000,  9999,  9999,  9,  44,  301, -1104
  103309,  160,  305,  566,  118,  1000,  9999,  9999,  13,  32,  281, -1066
  103396,  162,  305,  565,  638,  1000,  9999,  9999, -5,  47,  256, -1075
  103480,  162,  305,  565,  96,  1000,  7999,  9999,  27,  51,  288, -1037
  103566,  166,  305,  565,  111,  1000,  9999,  9999,  5,  41,  294, -1103
  103657,  161,  305,  565,  94,  1000,  9999,  9999,  11,  51,  252, -1083
  103740,  161,  305,  566,  123,  1000,  9999,  9999,  7,  46,  294, -1073
  103829,  161,  305,  566,  52,  1000,  7999,  9999,  19,  40,  287, -1039
  103913,  162,  305,  566,  122,  1000,  9999,  9999,  1,  60,  240, -1061
  103998,  162,  305,  567,  130,  1000,  9999,  9999,  10,  44,  237, -1095
  104083,  162,  305,  566,  72,  1000,  7999,  9999,  17,  38,  273, -1053
  104170,  161,  305,  566,  170,  1000,  9999,  9999, -3,  42,  277, -1080
  104257,  161,  305,  566,  60,  1000,  7999,  9999,  24,  44,  279, -1044
  104344,  162,  305,  565,  152,  1000,  9999,  9999, -3,  51,  292, -1108
  104432,  164,  305,  565,  57,  1000,  7999,  9999,  24,  44,  279, -1106
  104519,  161,  305,  565,  57,  1000,  9999,  9999,  10,  49,  264, -1030
  104610,  161,  305,  565,  116,  1000,  9999,  9999,  4,  43,  213, -1062
  104690,  162,  305,  565,  99,  1000,  9999,  9999,  13,  47,  220, -1052
  104780,  162,  305,  565,  82,  1000,  9999,  9999,  12,  44,  285, -1037
  104868,  161,  305,  566,  107,  1000,  9999,  9999,  8,  50,  306, -1095
  104954,  161,  305,  566,  94,  1000,  9999,  9999,  12,  42,  205, -1063
  105043,  161,  305,  565,  74,  1000,  9999,  9999,  13,  44,  290, -1035
  105133,  161,  305,  566,  91,  1000,  9999,  9999,  9,  48,  326, -1039
  105221,  161,  305,  565,  114,  1000,  9999,  9999,  8,  36,  248, -1085
  105307,  161,  305,  565,  134,  1000,  9999,  9999,  8,  48,  314, -1067
  105391,  161,  305,  565,  67,  1000,  7999,  9999,  19,  54,  269, -1122
  105482,  160,  305,  566,  81,  1000,  9999,  9999,  8,  34,  245, -1034
  105565,  162,  305,  566,  162,  1000,  9999,  9999,  2,  37,  259, -1107
  105650,  162,  305,  567,  79,  1000,  7999,  9999,  21,  43,  243, -1079
  105736,  161,  305,  565,  134,  1000,  9999,  9999,  2,  47,  301, -1065
  105823,  161,  305,  566,  89,  1000,  7999,  9999,  16,  65,  260, -1054
  105904,  161,  305,  567,  138,  1000,  9999,  9999,  5,  51,  259, -1104
  105994,  161,  305,  567,  53,  1000,  7999,  9999,  21,  45,  257, -1085
  106082,  161,  305,  565,  52,  1000,  9999,  9999,  10,  46,  267, -1121
  106169,  160,  305,  566,  62,  1000,  9999,  9999,  11,  38,  265, -1078
  106249,  161,  305,  566,  129,  1000,  9999,  9999,  3,  39,  295, -1055
  106337,  160,  305,  565,  156,  1000,  9999,  9999,  8,  47,  269, -1061
  106422,  160,  305,  566,  88,  1000,  7999,  9999,  18,  53,  278, -1072
  106508,  161,  305,  566,  97,  1000,  9999,  9999,  10,  45,  267, -1074
  106594,  160,  305,  566,  128,  1000,  9999,  9999,  6,  48,  224, -1128
  106678,  160,  305,  566,  109,  1000,  9999,  9999,  12,  59,  265, -1094
  106767,  162,  305,  566,  71,  1000,  7999,  9999,  15,  44,  229, -1111
  106852,  162,  305,  566,  53,  1000,  9999,  9999,  13,  43,  246, -1089
  106940,  161,  305,  567,  119,  1000,  9999,  9999,  4,  38,  242, -1076
  107025,  161,  305,  566,  97,  1000,  9999,  9999,  14,  42,  275, -1110
  107111,  162,  305,  566,  160,  1000,  9999,  9999,  3,  46,  254, -1101
  107197,  161,  305,  566,  121,  1000,  9999,  9999,  14,  45,  279, -1103
  107284,  160,  305,  567,  52,  1000,  7999,  9999,  17,  43,  306, -1071
  107371,  161,  305,  566,  127,  1000,  9999,  9999,  1,  51,  259, -1059
  107455,  162,  305,  566,  128,  1000,  9999,  9999,  10,  54,  239, -1042
  107542,  161,  305,  566,  105,  1000,  9999,  9999,  11,  61,  252, -1041
  107628,  161,  305,  566,  103,  1000,  9999,  9999,  10,  43,  256, -1058
  107714,  161,  305,  566,  118,  1000,  9999,  9999,  9,  57,  218, -1095
  107801,  161,  305,  566,  116,  1000,  9999,  9999,  10,  42,  275, -1071
  107888,  161,  305,  565,  127,  1000,  9999,  9999,  9,  49,  265, -1062
  107972,  162,  305,  566,  77,  1000,  7999,  9999,  16,  43,  264, -1078
  108062,  162,  305,  567,  65,  1000,  9999,  9999,  12,  40,  264, -1068
  108150,  160,  305,  566,  62,  1000,  9999,  9999,  12,  44,  274, -1014
  108240,  160,  305,  566,  99,  1000,  9999,  9999,  7,  45,  244, -1057
  108321,  161,  305,  567,  124,  1000,  9999,  9999,  9,  44,  306, -1112
  108409,  162,  305,  566,  99,  1000,  9999,  9999,  12,  59,  272, -1118
  108490,  162,  305,  567,  141,  1000,  9999,  9999,  6,  51,  287, -1102
  108579,  162,  305,  566,  101,  1000,  7999,  9999,  15,  42,  274, -1098
  108665,  161,  305,  566,  52,  1000,  7999,  9999,  15,  45,  281, -1085
  108757,  162,  305,  567,  97,  1000,  9999,  9999,  6,  51,  265, -1092
  108842,  161,  305,  567,  37,  1000,  7999,  9999,  20,  44,  265, -1095
  108932,  162,  305,  566,  98,  1000,  9999,  9999,  2,  41,  252, -1096
  109018,  162,  305,  566,  102,  1000,  9999,  9999,  11,  51,  255, -1056
  109109,  160,  305,  567,  84,  1000,  9999,  9999,  12,  53,  277, -1037
  109196,  160,  305,  566,  83,  1000,  9999,  9999,  11,  59,  216, -1057
  109280,  162,  305,  566,  121,  1000,  9999,  9999,  7,  47,  292, -1094
  109367,  161,  305,  566,  86,  1000,  7999,  9999,  15,  48,  236, -1058
  109454,  161,  305,  566,  149,  1000,  9999,  9999,  2,  42,  244, -1074
  109539,  163,  305,  566,  131,  1000,  9999,  9999,  12,  54,  243, -1094
  109625,  162,  305,  567,  55,  1000,  7999,  9999,  18,  51,  281, -1011
  109712,  161,  305,  567,  120,  1000,  9999,  9999,  2,  46,  274, -1040
  109798,  162,  305,  566,  68,  1000,  7999,  9999,  18,  50,  279, -1067
  109887,  161,  305,  567,  131,  1000,  9999,  9999,  1,  48,  264, -1098
  109977,  161,  305,  565,  67,  1000,  7999,  9999,  20,  46,  247, -1112
  110060,  161,  305,  567,  124,  1000,  9999,  9999,  3,  42,  260, -1032
  110147,  162,  305,  566,  131,  1000,  9999,  9999,  10,  46,  223, -1070
  110228,  160,  305,  566,  158,  1000,  9999,  9999,  7,  38,  263, -1058
  110315,  160,  305,  566,  106,  1000,  7999,  9999,  15,  44,  288, -1080
  110402,  161,  305,  566,  135,  1000,  9999,  9999,  6,  50,  264, -1092
  110490,  162,  305,  566,  59,  1000,  7999,  9999,  19,  52,  355, -1075
  110578,  160,  305,  566,  130,  1000,  9999,  9999,  1,  47,  227, -1054
  110663,  161,  305,  566,  109,  1000,  9999,  9999,  14,  47,  251, -1080
  110749,  162,  305,  565,  49,  1000,  7999,  9999,  17,  44,  205, -1069
  110835,  162,  305,  566,  149,  1000,  9999,  9999, -2,  51,  247, -1065
  110922,  161,  305,  567,  113,  1000,  7999,  9999,  15,  52,  254, -1102
  111008,  165,  305,  566,  71,  1000,  7999,  9999,  15,  42,  261, -1080
  111097,  161,  305,  567,  131,  1000,  9999,  9999,  2,  45,  256, -1045
  111181,  161,  305,  567,  116,  1000,  9999,  9999,  12,  48,  276, -1079
  111270,  161,  305,  567,  26,  1000,  7999,  9999,  23,  53,  288, -1068
  111356,  162,  305,  566,  106,  1000,  9999,  9999, -1,  42,  286, -1058
  111442,  161,  305,  566,  119,  1000,  9999,  9999,  10,  44,  231, -1133
  111530,  161,  305,  567,  82,  1000,  9999,  9999,  14,  53,  315, -1016
  111619,  161,  305,  566,  86,  1000,  9999,  9999,  11,  46,  279, -1099
  111704,  162,  305,  565,  94,  1000,  9999,  9999,  10,  49,  270, -1051
  111794,  162,  305,  566,  116,  1000,  9999,  9999,  8,  43,  283, -1094
  111882,  161,  305,  565,  135,  1000,  9999,  9999,  8,  43,  252, -1070
  111965,  161,  305,  566,  153,  1000,  9999,  9999,  8,  44,  275, -1074
  112045,  165,  305,  565,  144,  1000,  9999,  9999,  9,  40,  309, -1146
  112132,  162,  305,  566,  100,  1000,  9999,  9999,  13,  44,  213, -1081
  112222,  162,  305,  566,  93,  1000,  9999,  9999,  11,  46,  301, -1081
  112307,  161,  305,  565,  100,  1000,  9999,  9999,  10,  44,  260, -1105
  112395,  162,  305,  566,  66,  1000,  7999,  9999,  15,  53,  250, -1062
  112478,  162,  305,  566,  177,  1000,  9999,  9999, -2,  48,  220, -1020
  112566,  161,  305,  566,  140,  1000,  9999,  9999,  14,  45,  223, -1110
  112646,  160,  305,  566,  182,  1000,  9999,  9999,  4,  45,  279, -1069
  112731,  160,  305,  565,  96,  1000,  7999,  9999,  18,  44,  270, -1106
  112820,  161,  305,  565,  126,  1000,  9999,  9999,  6,  50,  280, -1095
  112903,  161,  305,  565,  107,  1000,  9999,  9999,  12,  47,  262, -1049
  112990,  161,  305,  565,  129,  1000,  9999,  9999,  7,  53,  286, -1052
  113081,  161,  305,  566,  92,  1000,  7999,  9999,  15,  44,  252, -1085
  113165,  160,  305,  566,  94,  1000,  9999,  9999,  9,  46,  274, -1053
  113252,  160,  305,  567,  119,  1000,  9999,  9999,  8,  45,  256, -1081
  113339,  161,  305,  565,  96,  1000,  9999,  9999,  13,  38,  263, -1074
  113423,  162,  305,  566,  157,  1000,  9999,  9999,  3,  43,  331, -1041
  113513,  162,  305,  566,  105,  1000,  7999,  9999,  16,  54,  271, -1049
  113597,  160,  305,  566,  122,  1000,  9999,  9999,  8,  35,  252, -1080
  113684,  165,  305,  566,  136,  1000,  9999,  9999,  9,  33,  239, -1115
  113772,  161,  305,  567,  103,  1000,  9999,  9999,  13,  38,  302, -1004
  113851,  157,  305,  566,  182,  1000,  9999,  9999,  0,  56,  260, -1083
  113937,  161,  305,  567,  147,  1000,  9999,  9999,  14,  36,  253, -1057
  114022,  161,  305,  566,  83,  1000,  7999,  9999,  15,  50,  250, -1087
  114113,  161,  305,  566,  139,  1000,  9999,  9999,  3,  50,  315, -1109
  114196,  162,  305,  566,  98,  1000,  7999,  9999,  15,  42,  370, -1087
  114285,  162,  305,  565,  111,  1000,  9999,  9999,  8,  45,  261, -1112
  114371,  162,  305,  566,  44,  1000,  7999,  9999,  20,  38,  225, -1055
  114463,  161,  305,  566,  64,  1000,  9999,  9999,  8,  34,  319, -1018
  114548,  161,  305,  566,  118,  1000,  9999,  9999,  5,  48,  242, -1111
  114633,  161,  305,  565,  137,  1000,  9999,  9999,  8,  43,  251, -1062
  114723,  161,  305,  566,  116,  1000,  9999,  9999,  12,  38,  244, -1061
  114806,  161,  305,  566,  103,  1000,  9999,  9999,  11,  45,  284, -1066
  114893,  162,  305,  566,  142,  1000,  9999,  9999,  6,  40,  260, -1059
  114978,  161,  305,  565,  37,  1000,  7999,  9999,  25,  53,  285, -1122
  115070,  162,  305,  566,  93,  1000,  9999,  9999,  2,  51,  240, -1078
  115156,  162,  305,  565,  68,  1000,  7999,  9999,  16,  45,  272, -1108
  115244,  161,  305,  565,  114,  1000,  9999,  9999,  5,  44,  291, -1083
  115330,  160,  305,  566,  87,  1000,  9999,  9999,  14,  35,  337, -1059
  115410,  161,  305,  566,  222,  1000,  9999,  9999, -3,  37,  282, -1048
  115491,  161,  305,  566,  158,  1000,  7999,  9999,  15,  45,  257, -1094
  115578,  161,  305,  567,  117,  1000,  9999,  9999,  12,  54,  269, -1072
  115669,  162,  305,  566,  89,  1000,  9999,  9999,  12,  48,  296, -1112
  115746,  161,  305,  566,  187,  1000,  9999,  9999, -2,  47,  317, -1142
  115832,  160,  305,  566,  166,  1000,  9999,  9999,  11,  41,  230, -1049
  115915,  161,  305,  566,  99,  1000,  7999,  9999,  15,  57,  247, -1099
  115996,  161,  305,  565,  211,  1000,  9999,  9999, -2,  46,  319, -1140
  116083,  161,  305,  565,  79,  1000,  7999,  9999,  24,  49,  290, -1038
  116174,  160,  305,  565,  94,  1000,  9999,  9999,  6,  35,  259, -1008
  116260,  164,  305,  566,  95,  1000,  9999,  9999,  11,  43,  263, -1036
  116341,  162,  305,  566,  149,  1000,  9999,  9999,  3,  47,  264, -1059
  116429,  160,  305,  566,  142,  1000,  9999,  9999,  10,  45,  294, -1080
  116514,  161,  305,  566,  129,  1000,  9999,  9999,  10,  44,  239, -1038
  116599,  162,  305,  565,  148,  1000,  9999,  9999,  8,  43,  241, -1089
  116687,  161,  305,  567,  180,  1000,  9999,  9999,  7,  48,  255, -1043
  116768,  162,  305,  566,  147,  1000,  9999,  9999,  11,  56,  237, -1083
  116858,  162,  305,  566,  107,  1000,  9999,  9999,  12,  53,  276, -1079
  116941,  162,  305,  566,  77,  1000,  9999,  9999,  13,  52,  235, -1068
  117024,  162,  305,  566,  157,  1000,  9999,  9999,  1,  44,  276, -1097
  117113,  162,  305,  565,  70,  1000,  7999,  9999,  20,  49,  228, -1064
  117194,  161,  305,  566,  173,  1000,  9999,  9999, -3,  46,  285, -1101
  117282,  164,  305,  566,  86,  1000,  7999,  9999,  21,  49,  244, -1083
  117369,  160,  305,  566,  123,  1000,  9999,  9999,  4,  47,  243, -1076
  117453,  162,  305,  567,  109,  1000,  9999,  9999,  12,  40,  241, -1056
  117541,  162,  305,  566,  151,  1000,  9999,  9999,  4,  36,  259, -1060
  117626,  160,  305,  566,  153,  1000,  9999,  9999,  10,  49,  258, -1061
  117711,  160,  305,  565,  91,  1000,  7999,  9999,  16,  45,  270, -1105
  117801,  160,  305,  565,  95,  1000,  9999,  9999,  9,  51,  267, -1098
  117889,  161,  305,  566,  83,  1000,  9999,  9999,  11,  53,  279, -1105
  117975,  162,  305,  566,  97,  1000,  9999,  9999,  10,  36,  310, -1073
  118060,  161,  305,  566,  114,  1000,  9999,  9999,  9,  51,  245, -1046
  118148,  165,  305,  565,  135,  1000,  9999,  9999,  9,  48,  297, -1072
  118229,  161,  305,  565,  148,  1000,  9999,  9999,  8,  38,  255, -1031
  118314,  161,  305,  565,  148,  1000,  9999,  9999,  9,  47,  216, -1106
  118402,  160,  305,  566,  84,  1000,  7999,  9999,  16,  51,  304, -1104
  118487,  162,  305,  566,  87,  1000,  9999,  9999,  10,  42,  260, -1075
  118573,  162,  305,  565,  76,  1000,  9999,  9999,  12,  37,  224, -1096
  118663,  162,  305,  566,  81,  1000,  9999,  9999,  11,  43,  306, -1073
  118747,  161,  305,  566,  142,  1000,  9999,  9999,  4,  44,  285, -1060
  118833,  161,  305,  566,  105,  1000,  9999,  9999,  14,  51,  319, -1081
  118917,  161,  305,  565,  71,  1000,  9999,  9999,  13,  47,  273, -1091
  119004,  161,  305,  566,  136,  1000,  9999,  9999,  2,  47,  248, -1046
  119091,  161,  305,  567,  138,  1000,  9999,  9999,  10,  41,  297, -1039
  119172,  162,  305,  566,  120,  1000,  9999,  9999,  11,  40,  301, -1086
  119259,  160,  305,  566,  163,  1000,  9999,  9999,  4,  41,  279, -1119
  119342,  161,  305,  566,  133,  1000,  9999,  9999,  13,  38,  249, -1104
  119431,  161,  305,  567,  64,  1000,  7999,  9999,  18,  58,  249, -1082
  119517,  161,  305,  566,  97,  1000,  9999,  9999,  6,  55,  288, -1043
  119609,  161,  305,  565,  131,  1000,  9999,  9999,  7,  46,  255, -1070
  119695,  161,  305,  566,  98,  1000,  9999,  9999,  13,  41,  280, -1073
  119775,  161,  305,  566,  120,  1000,  9999,  9999,  8,  41,  284, -1097
  119867,  160,  305,  566,  118,  1000,  9999,  9999,  10,  40,  239, -1055
  119952,  161,  305,  566,  140,  1000,  9999,  9999,  8,  46,  271, -1036
  120034,  162,  305,  565,  121,  1000,  9999,  9999,  12,  53,  253, -1067
  120124,  161,  305,  566,  82,  1000,  9999,  9999,  14,  55,  254, -1085
  120211,  160,  305,  566,  78,  1000,  9999,  9999,  11,  49,  233, -1096
  120302,  161,  305,  566,  59,  1000,  9999,  9999,  13,  42,  293, -1101
  120390,  161,  305,  566,  57,  1000,  9999,  9999,  12,  41,  288, -1061
  120472,  161,  305,  565,  112,  1000,  9999,  9999,  4,  49,  284, -1081
  120555,  161,  305,  565,  170,  1000,  9999,  9999,  5,  47,  265, -1147
  120646,  161,  305,  565,  119,  1000,  9999,  9999,  14,  42,  274, -1090
  120731,  161,  305,  566,  67,  1000,  7999,  9999,  16,  45,  266, -1077
  120821,  161,  305,  566,  40,  1000,  9999,  9999,  14,  42,  243, -1064
  120908,  161,  305,  565,  138,  1000,  9999,  9999, -1,  42,  195, -1063
  120989,  161,  305,  565,  101,  1000,  7999,  9999,  15,  46,  250, -1050
  121079,  165,  305,  566,  100,  1000,  9999,  9999,  11,  35,  241, -1146
  121167,  162,  305,  566,  30,  1000,  7999,  9999,  19,  49,  289, -1143
  121256,  162,  305,  566,  95,  1000,  9999,  9999,  2,  58,  247, -1106
  121341,  162,  305,  567,  100,  1000,  9999,  9999,  11,  55,  264, -1088
  121428,  161,  305,  565,  99,  1000,  9999,  9999,  10,  44,  177, -1055
  121515,  161,  305,  565,  156,  1000,  9999,  9999,  5,  41,  271, -1093
  121596,  162,  305,  565,  144,  1000,  9999,  9999,  10,  48,  324, -1080
  121679,  162,  305,  565,  120,  1000,  9999,  9999,  11,  45,  250, -1093
  121770,  161,  305,  566,  50,  1000,  7999,  9999,  19,  41,  265, -1070
  121855,  162,  305,  565,  63,  1000,  9999,  9999,  9,  34,  251, -1122
  121941,  162,  305,  565,  130,  1000,  9999,  9999,  3,  41,  238, -1080
  122028,  161,  305,  566,  147,  1000,  9999,  9999,  9,  73,  311, -994
  122111,  161,  305,  565,  106,  1000,  9999,  9999,  13,  41,  257, -1092
  122195,  161,  305,  565,  161,  1000,  9999,  9999,  4,  38,  289, -1076
  122282,  160,  305,  565,  124,  1000,  9999,  9999,  13,  51,  218, -1064
  122369,  160,  305,  565,  73,  1000,  7999,  9999,  15,  32,  281, -1128
  122458,  162,  305,  565,  52,  1000,  9999,  9999,  13,  51,  255, -1077
  122544,  161,  305,  565,  73,  1000,  9999,  9999,  9,  44,  287, -1086
  122635,  162,  305,  566,  36,  1000,  7999,  9999,  17,  44,  272, -1049
  122726,  160,  305,  565,  106,  1000,  9999,  9999,  1,  40,  273, -1032
  122811,  162,  305,  565,  131,  1000,  9999,  9999,  9,  33,  292, -1137
  122896,  161,  305,  566,  127,  1000,  9999,  9999,  9,  52,  287, -1043
  122980,  161,  305,  566,  109,  1000,  9999,  9999,  11,  46,  312, -996
  123065,  162,  305,  565,  152,  1000,  9999,  9999,  4,  47,  262, -1122
  123151,  162,  305,  566,  45,  1000,  7999,  9999,  24,  32,  226, -1084
  123243,  161,  305,  565,  54,  1000,  9999,  9999,  8,  39,  295, -1106
  123332,  161,  305,  566,  65,  1000,  9999,  9999,  11,  43,  233, -1109
  123413,  162,  305,  566,  111,  1000,  9999,  9999,  6,  66,  329, -1004
  123503,  161,  305,  566,  92,  1000,  9999,  9999,  14,  45,  203, -1022
  123587,  161,  305,  566,  119,  1000,  9999,  9999,  7,  46,  269, -1059
  123676,  162,  305,  566,  61,  1000,  7999,  9999,  17,  39,  238, -1152
  123762,  161,  305,  564,  72,  1000,  9999,  9999,  10,  54,  230, -999
  123852,  161,  305,  565,  103,  1000,  9999,  9999,  7,  57,  267, -1082
  123935,  164,  305,  565,  147,  1000,  9999,  9999,  7,  55,  336, -1078
  124022,  161,  305,  566,  58,  1000,  7999,  9999,  21,  52,  289, -1067
  124110,  162,  305,  566,  83,  1000,  9999,  9999,  6,  44,  242, -1108
  124197,  162,  305,  565,  104,  1000,  9999,  9999,  9,  49,  302, -1080
  124288,  161,  305,  565,  71,  1000,  9999,  9999,  14,  53,  294, -1082
  124372,  162,  305,  566,  76,  1000,  9999,  9999,  10,  51,  263, -1086
  124459,  161,  305,  566,  52,  1000,  9999,  9999,  14,  43,  311, -1053
  124543,  162,  305,  565,  161,  1000,  9999,  9999, -2,  52,  287, -1083
  124632,  162,  305,  566,  115,  1000,  7999,  9999,  15,  57,  292, -1090
  124717,  161,  305,  565,  70,  1000,  7999,  9999,  15,  37,  311, -1111
  124808,  160,  305,  566,  57,  1000,  9999,  9999,  13,  49,  238, -1118
  124895,  160,  305,  567,  38,  1000,  9999,  9999,  14,  48,  255, -1093
  124981,  161,  305,  566,  59,  1000,  9999,  9999,  9,  68,  231, -1067
  125070,  161,  305,  565,  129,  1000,  9999,  9999,  3,  30,  300, -1061
  125158,  160,  305,  565,  112,  1000,  9999,  9999,  13,  47,  239, -1050
  125243,  161,  305,  566,  72,  1000,  7999,  9999,  15,  52,  214, -1030
  125328,  162,  305,  566,  115,  1000,  9999,  9999,  5,  51,  235, -1063
  125415,  161,  305,  567,  144,  1000,  9999,  9999,  7,  42,  271, -1071
  125497,  161,  305,  566,  107,  1000,  9999,  9999,  14,  49,  252, -1103
  125587,  161,  305,  567,  123,  1000,  9999,  9999,  8,  58,  251, -1098
  125669,  162,  305,  565,  102,  1000,  9999,  9999,  12,  49,  272, -1107
  125760,  161,  305,  565,  34,  1000,  7999,  9999,  19,  47,  272, -1101
  125842,  162,  305,  565,  149,  1000,  9999,  9999, -4,  50,  265, -1026
  125927,  162,  305,  564,  102,  1000,  7999,  9999,  17,  48,  214, -1085
  126014,  160,  305,  565,  130,  1000,  9999,  9999,  6,  33,  309, -1075
  126101,  161,  305,  566,  78,  1000,  7999,  9999,  16,  59,  244, -1021
  126186,  161,  305,  566,  154,  1000,  9999,  9999,  0,  32,  240, -1118
  126273,  164,  305,  565,  124,  1000,  9999,  9999,  13,  45,  220, -1040
  126364,  161,  305,  566,  67,  1000,  7999,  9999,  16,  46,  247, -1076
  126444,  162,  305,  566,  140,  1000,  9999,  9999,  1,  44,  292, -1046
  126527,  160,  305,  565,  115,  1000,  9999,  9999,  13,  44,  290, -1053
  126618,  162,  305,  565,  91,  1000,  9999,  9999,  13,  45,  293, -1053
  126699,  162,  305,  566,  163,  1000,  9999,  9999,  1,  47,  291, -1057
  126785,  162,  305,  564,  150,  1000,  9999,  9999,  11,  44,  242, -1107
  126868,  161,  305,  565,  136,  1000,  9999,  9999,  10,  51,  256, -1123
  126955,  162,  305,  566,  121,  1000,  9999,  9999,  10,  49,  208, -1038
  127039,  161,  305,  565,  146,  1000,  9999,  9999,  7,  51,  275, -1087
  127122,  161,  305,  566,  124,  1000,  9999,  9999,  12,  56,  260, -1080
  127213,  162,  305,  565,  91,  1000,  9999,  9999,  13,  58,  255, -1081
  127294,  162,  305,  565,  98,  1000,  9999,  9999,  9,  50,  281, -1119
  127385,  161,  305,  565,  113,  1000,  9999,  9999,  9,  47,  260, -1066
  127464,  161,  305,  565,  154,  1000,  9999,  9999,  6,  36,  267, -1062
  127548,  162,  305,  564,  143,  1000,  9999,  9999,  11,  35,  243, -1068
  127631,  162,  305,  565,  97,  1000,  9999,  9999,  14,  43,  277, -1059
  127718,  162,  305,  565,  148,  1000,  9999,  9999,  3,  48,  287, -1054
  127803,  162,  305,  566,  130,  1000,  9999,  9999,  11,  47,  292, -1039
  127887,  161,  305,  565,  127,  1000,  9999,  9999,  9,  49,  256, -1078
  127972,  161,  305,  565,  86,  1000,  9999,  9999,  14,  44,  287, -1084
  128061,  162,  305,  565,  102,  1000,  9999,  9999,  8,  45,  276, -1015
  128147,  160,  305,  565,  38,  1000,  7999,  9999,  20,  52,  264, -1107
  128239,  161,  305,  565,  89,  1000,  9999,  9999,  4,  47,  326, -1028
  128324,  161,  305,  565,  122,  1000,  9999,  9999,  8,  48,  240, -1096
  128410,  162,  305,  565,  162,  1000,  9999,  9999,  6,  41,  275, -995
  128497,  160,  305,  564,  109,  1000,  7999,  9999,  15,  43,  249, -1097
  128580,  161,  305,  565,  103,  1000,  9999,  9999,  10,  66,  244, -1121
  128669,  164,  305,  565,  74,  1000,  9999,  9999,  14,  67,  241, -1079
  128754,  162,  305,  566,  180,  1000,  9999,  9999, -3,  43,  273, -1098
  128842,  161,  305,  566,  161,  1000,  9999,  9999,  13,  48,  268, -1076
  128927,  161,  305,  565,  103,  1000,  9999,  9999,  14,  49,  301, -1079
  129009,  162,  305,  565,  130,  1000,  9999,  9999,  6,  32,  276, -1056
  129097,  161,  305,  566,  169,  1000,  9999,  9999,  6,  43,  269, -1030
  129182,  160,  305,  566,  119,  1000,  9999,  9999,  14,  44,  247, -1061
  129263,  162,  305,  566,  128,  1000,  9999,  9999,  8,  37,  223, -1067
  129347,  161,  305,  565,  172,  1000,  9999,  9999,  5,  45,  233, -1077
  129432,  162,  305,  565,  67,  1000,  7999,  9999,  22,  42,  192, -1137
  129518,  161,  305,  565,  125,  1000,  9999,  9999,  2,  52,  300, -1096
  129605,  160,  305,  565,  81,  1000,  7999,  9999,  15,  62,  270, -1092
  129692,  160,  305,  564,  168,  1000,  9999,  9999,  0,  50,  320, -1055
  129776,  162,  305,  564,  29,  1000,  7999,  9999,  29,  40,  287, -1086
  129866,  162,  305,  564,  99,  1000,  9999,  9999, -1,  70,  268, -1091
  129957,  162,  305,  566,  79,  1000,  7999,  9999,  16,  50,  285, -1075
  130044,  161,  305,  564,  73,  1000,  9999,  9999,  12,  49,  286, -1163
  130129,  162,  305,  565,  110,  1000,  9999,  9999,  6,  33,  275, -1063
  130219,  161,  305,  565,  86,  1000,  9999,  9999,  14,  39,  249, -1050
  130303,  161,  305,  565,  116,  1000,  9999,  9999,  7,  48,  280, -1135
  130388,  161,  305,  565,  156,  1000,  9999,  9999,  7,  22,  274, -1013
  130473,  162,  305,  566,  126,  1000,  9999,  9999,  14,  54,  255, -1077
  130561,  162,  305,  565,  74,  1000,  7999,  9999,  15,  46,  215, -1102
  130646,  161,  305,  565,  118,  1000,  9999,  9999,  4,  49,  303, -1100
  130731,  165,  305,  566,  95,  1000,  9999,  9999,  14,  37,  298, -1057
  130814,  161,  305,  566,  132,  1000,  9999,  9999,  5,  53,  284, -1028
  130905,  164,  305,  566,  74,  1000,  7999,  9999,  18,  55,  285, -1023
  130992,  162,  305,  565,  112,  1000,  9999,  9999,  4,  47,  293, -1125
  131076,  161,  305,  566,  112,  1000,  9999,  9999,  11,  42,  258, -1066
  131163,  160,  305,  565,  100,  1000,  9999,  9999,  11,  37,  283, -1053
  131250,  161,  305,  566,  129,  1000,  9999,  9999,  7,  48,  250, -1074
  131338,  161,  305,  565,  78,  1000,  7999,  9999,  16,  49,  262, -1050
  131422,  162,  305,  565,  154,  1000,  9999,  9999,  0,  57,  300, -1128
  131505,  162,  305,  565,  166,  1000,  9999,  9999,  9,  36,  264, -1101
  131593,  161,  305,  565,  136,  1000,  9999,  9999,  12,  47,  264, -1077
  131672,  162,  305,  565,  190,  1000,  9999,  9999,  3,  44,  299, -1133
  131758,  162,  305,  565,  133,  1000,  9999,  9999,  14,  34,  291, -1065
  131843,  162,  305,  565,  98,  1000,  9999,  9999,  12,  60,  196, -1068
  131930,  161,  305,  565,  125,  1000,  9999,  9999,  8,  49,  301, -1085
  132017,  160,  305,  565,  117,  1000,  9999,  9999,  10,  50,  201, -1086
  132104,  160,  305,  565,  144,  1000,  9999,  9999,  6,  46,  302, -1114
  132192,  161,  305,  565,  96,  1000,  7999,  9999,  16,  42,  289, -1078
  132279,  161,  305,  566,  109,  1000,  9999,  9999,  9,  40,  281, -1123
  132366,  162,  305,  566,  147,  1000,  9999,  9999,  6,  65,  294, -1081
  132446,  162,  305,  565,  127,  1000,  9999,  9999,  11,  44,  262, -1069
  132536,  162,  305,  566,  83,  1000,  9999,  9999,  14,  38,  271, -1089
  132620,  161,  305,  566,  90,  1000,  9999,  9999,  10,  48,  256, -1050
  132711,  161,  305,  566,  103,  1000,  9999,  9999,  10,  39,  284, -1092
  132795,  161,  305,  565,  55,  1000,  7999,  9999,  17,  40,  273, -1061
  132882,  161,  305,  565,  51,  1000,  9999,  9999,  11,  40,  270, -1056
  132973,  161,  305,  565,  159,  1000,  9999,  9999, -2,  43,  263, -1074
  133059,  161,  305,  566,  99,  1000,  7999,  9999,  17,  49,  264, -1053
  133139,  160,  305,  565,  161,  1000,  9999,  9999,  2,  53,  240, -1097
  133226,  161,  305,  565,  115,  1000,  9999,  9999,  14,  34,  284, -1055
  133313,  161,  305,  565,  122,  1000,  9999,  9999,  10,  47,  247, -1053
  133398,  165,  305,  564,  74,  1000,  7999,  9999,  17,  40,  268, -1055
  133486,  161,  305,  566,  156,  1000,  9999,  9999, -1,  39,  276, -1062
  133571,  160,  305,  565,  113,  1000,  7999,  9999,  15,  39,  251, -1057
  133656,  161,  305,  565,  156,  1000,  9999,  9999,  4,  47,  270, -1101
  133739,  161,  305,  565,  112,  1000,  9999,  9999,  14,  39,  254, -1097
  133826,  160,  305,  565,  138,  1000,  9999,  9999,  7,  39,  317, -1110
  133911,  161,  305,  566,  75,  1000,  7999,  9999,  17,  42,  249, -1087
  133997,  164,  305,  565,  94,  1000,  9999,  9999,  8,  54,  342, -1065
  134084,  160,  305,  566,  82,  1000,  9999,  9999,  11,  54,  244, -1077
  134165,  162,  305,  566,  126,  1000,  9999,  9999,  7,  50,  282, -1048
  134248,  161,  305,  566,  151,  1000,  9999,  9999,  7,  38,  266, -1050
  134335,  162,  305,  565,  125,  1000,  9999,  9999,  12,  47,  247, -1098
  134426,  162,  305,  565,  76,  1000,  7999,  9999,  15,  38,  257, -1083
  134510,  161,  305,  565,  84,  1000,  9999,  9999,  10,  52,  258, -1098
  134597,  160,  305,  564,  102,  1000,  9999,  9999,  9,  57,  308, -1031
  134680,  162,  305,  564,  136,  1000,  9999,  9999,  7,  47,  272, -1062
  134768,  162,  305,  564,  103,  1000,  9999,  9999,  14,  40,  246, -1045
  134855,  161,  305,  564,  134,  1000,  9999,  9999,  5,  28,  310, -1066
  134942,  161,  305,  564,  110,  1000,  9999,  9999,  12,  43,  241, -1073
  135029,  162,  305,  564,  137,  1000,  9999,  9999,  7,  47,  245, -1113
  135109,  160,  305,  564,  172,  1000,  9999,  9999,  6,  38,  316, -1016
  135196,  161,  305,  564,  114,  1000,  7999,  9999,  15,  54,  276, -1080
  135287,  161,  305,  565,  138,  1000,  9999,  9999,  7,  54,  229, -1049
  135367,  161,  305,  565,  87,  1000,  7999,  9999,  15,  48,  269, -1154
  135454,  161,  305,  564,  159,  1000,  9999,  9999,  2,  48,  317, -1054
  135537,  161,  305,  565,  131,  1000,  9999,  9999,  13,  43,  223, -1100
  135622,  161,  305,  564,  118,  1000,  9999,  9999,  10,  32,  231, -1098
  135706,  160,  305,  565,  139,  1000,  9999,  9999,  7,  33,  285, -1103
  135796,  160,  305,  564,  116,  1000,  9999,  9999,  12,  45,  294, -1083
  135876,  162,  305,  565,  143,  1000,  9999,  9999,  7,  51,  318, -1153
  135963,  165,  305,  566,  148,  1000,  9999,  9999,  9,  44,  264, -1047
  136050,  161,  305,  565,  98,  1000,  9999,  9999,  13,  47,  229, -1046
  136141,  161,  305,  564,  105,  1000,  9999,  9999,  10,  56,  266, -1087
  136229,  161,  305,  564,  66,  1000,  7999,  9999,  15,  47,  248, -1098
  136317,  160,  305,  565,  64,  1000,  9999,  9999,  10,  47,  296, -1105
  136402,  161,  305,  565,  105,  1000,  9999,  9999,  7,  55,  271, -1049
  136483,  161,  305,  565,  123,  1000,  9999,  9999,  9,  43,  271, -1088
  136574,  161,  305,  566,  121,  1000,  9999,  9999,  10,  53,  267, -1041
  136661,  160,  305,  566,  117,  1000,  9999,  9999,  10,  41,  252, -1055
  136742,  161,  305,  565,  129,  1000,  9999,  9999,  9,  37,  262, -1080
  136828,  161,  305,  565,  50,  1000,  7999,  9999,  20,  36,  308, -1049
  136920,  161,  305,  566,  84,  1000,  9999,  9999,  5,  54,  286, -1101
  137009,  160,  305,  566,  55,  1000,  7999,  9999,  16,  58,  289, -1073
  137094,  162,  305,  565,  50,  1000,  9999,  9999,  13,  46,  245, -1074
  137181,  161,  305,  566,  166,  1000,  9999,  9999, -3,  40,  205, -1109
  137268,  160,  305,  565,  114,  1000,  7999,  9999,  16,  38,  236, -1091
  137349,  162,  305,  565,  126,  1000,  9999,  9999,  8,  41,  257, -1052
  137435,  161,  305,  565,  133,  1000,  9999,  9999,  9,  46,  282, -1066
  137523,  161,  305,  565,  92,  1000,  9999,  9999,  14,  44,  222, -1066
  137612,  161,  305,  564,  116,  1000,  9999,  9999,  6,  36,  283, -1063
  137697,  161,  305,  564,  117,  1000,  9999,  9999,  10,  41,  290, -1103
