time_ms,ir_r,ir_l,tf_r,tf_l,tf_front,throttle_l,throttle_r,steering,gyro_z,accel_x,accel_y
  7774,  200,  305,  437,  379,  3949,  9999,  9999, -10,  692, -211, -1271
  7856,  305,  305,  448,  369,  4031,  6499,  9999,  22,  4588,  3792,  6961
  7936,  305,  305,  473,  351,  3956,  9999,  9999,  0, -817, -1457,  657
  8017,  305,  305,  482,  361,  3888,  9999,  9999,  4, -1404, -1769,  3084
  8098,  305,  305,  483,  386,  3785,  9999,  9999,  4, -2490,  1078,  4457
  8179,  305,  293,  478,  420,  3705,  9999,  9999,  5, -1964, -1979, -2569
  8260,  305,  305,  471,  463,  3786,  9999,  9999,  3, -1722, -1378,  1180
  8342,  305,  305,  457,  537,  3465,  9999,  9999,  3, -3436,  433, -2062
  8423,  305,  305,  439,  461,  3345,  9999,  9999,  2, -3220, -2782, -1707
  8504,  305,  305,  421,  454,  3221,  9999,  9999,  2, -3399,  1281, -1533
  8585,  305,  305,  346,  459,  3104,  9999,  9999, -2, -2148,  2007, -2050
  8666,  305,  305,  265,  470,  2634,  9999,  9999, -9, -3179, -1324, -635
  8747,  305,  305,  256,  479,  2257,  9999,  9999, -8, -677, -1634, -1272
  8828,  305,  305,  260,  474,  2442,  9999,  9999, -7,  3575, -1734, -4241
  8909,  291,  305,  286,  447,  2730,  9999,  9999, -5,  4593,  614, -1063
  8990,  305,  305,  323,  406,  2657,  9999,  9999,  0,  4674, -1593,  1533
  9071,  305,  305,  374,  365,  2590,  9999,  9999,  0,  3344,  3205,  1668
  9152,  305,  305,  423,  320,  2511,  9999,  9999,  3,  2025, -36, -4689
  9234,  305,  305,  448,  246,  2427,  9999,  9999,  6,  416,  1019,  2379
  9315,  305,  305,  447,  243,  2310,  9999,  9999,  3, -2323, -1006, -120
  9396,  305,  305,  436,  256,  2197,  9999,  9999,  3, -3335,  1000, -1565
  9477,  305,  242,  416,  282,  2080,  9999,  9999,  11, -3277, -64, -1463
  9558,  305,  242,  388,  315,  1974,  9999,  9999,  1, -3812,  1606,  2463
  9639,  305,  264,  357,  368,  1866,  9999,  9999, -2, -6205,  318,  445
  9720,  288,  292,  315,  453,  1563,  9999,  9999, -8, -3552,  364, -1309
  9801,  273,  305,  282,  618,  1309,  9999,  9999, -6, -415,  491, -3228
  9882,  270,  305,  261,  774,  1348,  9999,  9999, -5,  3205,  799,  1365
  9963,  305,  305,  252,  826,  1518,  9999,  9999, -4,  3156,  1253,  1158
  10045,  291,  305,  245,  853,  1387,  9999,  9999, -9,  3443,  1752, -2409
  10126,  305,  305,  241,  873,  1299,  9999,  9999, -8,  3008,  1642,  428
  10208,  291,  305,  247,  1887,  1213,  9999,  9999, -2,  3994, -1704, -2376
  10288,  276,  305,  262,  1990,  1134,  9999,  9999, -4,  4857,  94,  1681
  10369,  273,  305,  286,  1706,  1044,  9999,  9999, -3,  2178,  1713, -457
  10450,  274,  305,  307,  1708,  958,  9999,  9999, -1,  2071,  925, -3594
  10531,  291,  305,  329,  1381,  866,  9999,  9999,  0,  1746,  206, -1887
  10612,  305,  305,  353,  1278,  775,  9999,  9999, -3,  1545, -365, -1269
  10693,  305,  305,  368,  1159,  680,  9999,  7999, -15,  1026,  8,  1318
  10775,  305,  305,  392,  1062,  580,  8999,  5499, -27,  4718, -1183, -1138
  10856,  288,  305,  444,  981,  521,  8999,  6999, -34,  9931, -2301, -2722
  10937,  305,  305,  451,  986,  512,  8999,  6999, -35,  16120, -4941,  1583
  11018,  305,  305,  371,  1053,  558,  8999,  6999, -30,  16507, -1057, -2408
  11099,  305,  305,  329,  1099,  542,  8999,  6999, -32,  15925, -130, -492
  11180,  305,  305,  315,  1190,  520,  8999,  6999, -35,  16345, -3059, -2489
  11261,  305,  305,  332,  1542,  524,  8999,  6999, -34,  16895, -5475, -3824
  11344,  305,  305,  368,  1844,  585,  8999,  6999, -26,  17170, -449,  2559
  11426,  305,  305,  341,  2239,  666,  9999,  7999, -16,  17339, -2182, -1673
  11506,  305,  305,  337,  2303,  714,  9999,  9999, -10,  15432, -1656,  1153
  11587,  305,  305,  360,  1638,  800,  9999,  9999,  0,  12529, -1864,  1499
  11668,  305,  305,  394,  602,  861,  9999,  9999, -4,  6758, -1311,  2257
  11749,  305,  190,  554,  535,  850,  6499,  9999,  33,  1366, -2004, -2782
  11831,  305,  305,  364,  3202,  769,  9999,  9999, -3, -4347,  3641, -3799
  11912,  305,  305,  313,  3014,  606,  9999,  6499, -24, -6644,  3036,  6124
  11993,  305,  305,  254,  1942,  477,  8999,  5499, -35,  1437, -2499, -5859
  12074,  305,  305,  207,  1766,  451,  8999,  6999, -35,  9959, -6317, -6540
  12155,  305,  305,  187,  2228,  715,  9999,  9999, -10,  15525,  995, -2468
  12236,  305,  305,  196,  4509,  847,  9999,  9999, -7,  14624, -5864,  107
  12317,  305,  305,  229,  6315,  1143,  9999,  9999, -5,  12727, -2190, -644
  12398,  305,  305,  324,  2904,  1405,  9999,  9999,  2,  6468, -315,  2129
  12479,  305,  305,  407,  1577,  1297,  9999,  9999,  2,  2043,  3523,  1817
  12560,  305,  305,  416,  1504,  1197,  9999,  9999,  4, -556,  319, -1497
  12641,  305,  305,  410,  4021,  1108,  9999,  9999,  9, -1687,  1286, -1335
  12722,  305,  305,  395,  6407,  1020,  9999,  9999,  4, -2417,  2561, -679
  12804,  305,  305,  327,  5422,  924,  9999,  9999,  0, -5531,  3314,  2138
  12885,  305,  305,  245,  5937,  776,  9999,  9999, -3, -4575,  957,  2411
  12966,  305,  305,  200,  5588,  604,  9999,  6499, -24, -2314,  389, -346
  13047,  289,  305,  159,  878,  514,  8999,  5499, -35,  3145,  3306, -4620
  13128,  235,  305,  134,  656,  544,  8999,  6999, -32,  15127, -6998, -7460
  13209,  184,  305,  151,  2912,  435,  8999,  6999, -35,  15993, -3969, -2820
  13290,  185,  305,  207,  4519,  355,  7999,  5999, -35,  17549, -4039, -2065
  13371,  225,  305,  309,  1820,  301,  7999,  5999, -35,  17562, -2888, -1621
  13452,  305,  305,  288,  1085,  282,  7999,  5999, -35,  17061, -3560, -2242
  13533,  305,  305,  211,  981,  274,  7999,  5999, -35,  17218, -397, -825
  13614,  305,  305,  170,  821,  2755,  9999,  7999, -17,  16449, -5486, -2883
  13695,  305,  305,  153,  684,  3009,  9999,  7999, -18,  17677, -2447, -3001
  13776,  305,  305,  296,  589,  948,  9999,  9999,  6,  14867, -438, -1126
  13858,  305,  305,  1042,  514,  628,  6499,  9999,  21,  11719, -5141, -1142
  13939,  305,  305,  1673,  448,  575,  5499,  8999,  28, -150,  1543, -226
  14020,  305,  305,  1656,  384,  463,  6999,  8999,  35, -12859,  6512, -2108
  14101,  305,  305,  1407,  345,  558,  6999,  8999,  30, -15696,  3963, -1205
  14182,  305,  305,  1181,  333,  857,  7999,  9999,  15, -16332,  2625, -1922
  14263,  305,  305,  715,  324,  2487,  9999,  9999,  13, -16202,  3707, -1012
  14345,  305,  305,  444,  253,  1860,  9999,  9999,  4, -13155,  1526,  723
  14425,  305,  305,  334,  326,  1470,  9999,  9999, -6, -11627,  5113,  1349
  14506,  305,  305,  284,  420,  1194,  9999,  9999, -7, -6159, -69, -3584
  14587,  305,  305,  273,  503,  1073,  9999,  9999, -6,  611,  2361,  369
  14668,  198,  305,  305,  523,  1021,  9999,  9999, -13,  2216,  2694, -1976
  14749,  257,  305,  356,  530,  977,  9999,  9999,  13,  3927, -2327, -991
  14830,  305,  305,  435,  578,  987,  9999,  9999,  7,  7125,  1977,  2575
  14912,  305,  305,  468,  590,  943,  9999,  9999,  3, -1530,  2207, -1207
  14992,  305,  305,  414,  748,  789,  9999,  9999, -1, -4543, -2978, -1449
  15074,  305,  305,  350,  1333,  616,  9999,  6499, -23, -4018,  1064, -1335
  15155,  305,  305,  288,  1952,  506,  6499,  2999, -35,  319, -8346, -3843
  15236,  305,  305,  238,  1790,  484,  8999,  6999, -35,  10664, -7809, -3435
  15317,  305,  305,  218,  1887,  606,  9999,  7999, -24,  14634,  1656, -1033
  15398,  305,  305,  223,  942,  670,  9999,  7999, -16,  16458,  156, -1515
  15479,  305,  305,  256,  587,  1223,  9999,  9999, -7,  15760, -1381,  173
  15560,  305,  305,  322,  446,  1193,  9999,  9999,  0,  13181, -29, -109
  15641,  305,  289,  401,  367,  1156,  9999,  9999,  5,  6738,  1901,  2019
  15722,  305,  286,  422,  317,  1091,  9999,  9999,  4,  585, -206,  428
  15803,  305,  288,  370,  287,  997,  9999,  9999,  0, -2664,  2758,  1976
  15884,  305,  286,  384,  269,  868,  9999,  9999,  1, -3420, -691, -1914
  15965,  305,  305,  387,  523,  753,  9999,  9999, -5, -1691,  1643,  1668
  16046,  305,  305,  395,  1101,  649,  9999,  6499, -18, -1463, -332, -1538
  16127,  305,  305,  407,  1023,  556,  8999,  5499, -30,  5308, -5191, -10682
  16209,  305,  305,  473,  957,  508,  8999,  6999, -35,  14480, -6022, -5198
  16290,  305,  305,  421,  927,  505,  8999,  6999, -35,  15486,  1074,  1693
  16371,  305,  305,  352,  959,  732,  9999,  9999, -8,  15886, -3322, -681
  16452,  305,  305,  318,  925,  680,  9999,  7999, -15,  13706, -3505, -1267
  16533,  305,  305,  306,  960,  587,  8999,  6999, -26,  15162, -6956, -1709
  16614,  305,  305,  325,  1034,  519,  8999,  6999, -35,  12801, -36, -270
  16697,  305,  305,  473,  1130,  473,  8999,  6999, -35,  14617, -4027, -2763
  16776,  305,  305,  444,  1412,  463,  8999,  6999, -35,  15817, -3485, -4124
  16857,  305,  305,  354,  3011,  451,  8999,  6999, -35,  17036, -1619, -1973
  16938,  305,  305,  304,  4732,  476,  8999,  6999, -35,  17380,  836, -1283
  17019,  305,  275,  284,  560,  546,  8999,  6999, -31,  17069, -349,  1963
  17100,  305,  305,  325,  1163,  742,  9999,  9999, -7,  16907, -2385, -5955
  17181,  305,  305,  287,  837,  1030,  9999,  9999, -8,  15991, -3097,  1474
  17263,  305,  305,  330,  671,  2390,  9999,  9999, -2,  12834, -4292,  1608
  17344,  305,  305,  377,  655,  3529,  9999,  9999,  1,  6312,  1862,  1402
  17425,  305,  305,  412,  536,  3434,  9999,  9999,  1,  2182,  3461, -1828
  17506,  305,  305,  431,  459,  3347,  9999,  9999,  2,  313,  1980,  1839
  17587,  305,  305,  380,  437,  3254,  9999,  9999,  0, -758,  2422, -329
  17668,  305,  305,  321,  418,  3127,  9999,  9999, -4, -509,  492, -2169
  17749,  305,  305,  339,  400,  3038,  9999,  9999, -2, -1143,  2476,  19
  17830,  305,  305,  357,  385,  2944,  9999,  9999, -1,  38, -1645, -2361
  17911,  305,  305,  382,  366,  2847,  9999,  9999,  0,  467,  393, -92
  17992,  305,  305,  415,  339,  2762,  9999,  9999,  2,  651, -2833, -3001
  18073,  305,  296,  447,  311,  2684,  9999,  9999,  5,  743, -736, -2248
  18154,  305,  305,  481,  286,  2589,  9999,  9999,  4, -1420,  1690,  864
  18235,  305,  305,  495,  253,  2474,  9999,  9999,  6, -2374,  4675, -3051
  18316,  305,  305,  472,  209,  2353,  9999,  9999,  7, -3682,  1785, -19
  18397,  305,  287,  448,  236,  2231,  9999,  9999,  3, -3953,  3743, -2958
  18479,  305,  218,  419,  275,  2119,  9999,  9999,  13, -4624,  1909,  1440
  18560,  305,  220,  383,  330,  2044,  9999,  9999,  2, -4404,  2802,  288
  18641,  305,  254,  343,  405,  1516,  9999,  9999, -4, -6851,  4490,  383
  18722,  305,  298,  295,  556,  1069,  9999,  9999, -10, -4257,  474,  1419
  18803,  281,  305,  252,  875,  912,  9999,  9999, -7,  1361, -902, -1590
  18884,  273,  305,  226,  1044,  945,  9999,  9999, -7,  4363,  1964, -2822
  18965,  289,  305,  215,  1033,  1104,  9999,  9999, -8,  4826, -2227, -2346
  19046,  255,  305,  210,  994,  1327,  9999,  9999, -12,  4718,  2084,  973
  19127,  235,  305,  206,  1038,  1351,  9999,  9999, -9,  4667, -3545, -401
  19208,  227,  305,  210,  1441,  1272,  9999,  9999, -4,  5597, -984, -2097
  19289,  235,  305,  233,  1669,  1198,  9999,  9999, -2,  5956, -1172, -347
  19370,  227,  305,  267,  1610,  1117,  9999,  9999, -3,  3641,  2016, -1939
  19451,  238,  305,  297,  1530,  1036,  9999,  9999,  1,  1897,  174,  1778
  19534,  271,  305,  327,  1461,  950,  9999,  9999,  4,  756,  3281,  4605
  19613,  305,  305,  351,  1512,  857,  9999,  9999,  4, -286,  1023, -306
  19694,  305,  305,  363,  1266,  753,  9999,  9999, -5, -1588,  1388, -1838
  19775,  305,  305,  359,  1133,  645,  9999,  6499, -19, -2349,  3081, -2353
  19857,  305,  305,  356,  1013,  541,  8999,  5499, -32,  5571, -2832, -5542
  19938,  305,  305,  411,  940,  493,  8999,  6999, -35,  14373, -701, -1502
  20019,  305,  305,  425,  962,  486,  8999,  6999, -35,  15592, -1445, -1464
  20100,  305,  305,  347,  1042,  514,  8999,  6999, -35,  16604, -4336, -3877
  20181,  305,  305,  308,  1088,  530,  8999,  6999, -33,  16307, -441,  1395
  20262,  305,  305,  298,  1231,  511,  8999,  6999, -35,  16119, -1342, -521
  20343,  305,  305,  316,  1672,  522,  8999,  6999, -34,  16401, -346,  1243
  20424,  305,  305,  360,  1902,  580,  8999,  6999, -27,  16878, -5484, -5203
  20505,  305,  305,  336,  2234,  676,  9999,  7999, -15,  17341, -1561, -1955
  20586,  305,  305,  336,  2321,  735,  9999,  9999, -8,  17168, -5225,  29
  20667,  305,  305,  365,  1267,  829,  9999,  9999, -1,  13320, -786,  2285
  20748,  305,  178,  397,  598,  885,  6499,  9999,  24,  5783, -2430, -273
  20829,  305,  192,  570,  544,  865,  9999,  9999,  7, -2489,  3173, -33
  20910,  305,  305,  364,  2252,  672,  9999,  6499, -16, -6165,  3837, -1541
  20991,  305,  305,  304,  2302,  522,  6499,  2999, -34, -4471, -10307, -6226
  21072,  305,  305,  248,  2009,  455,  8999,  5499, -35,  5777,  543, -4141
  21153,  305,  305,  215,  1889,  486,  8999,  6999, -35,  15024, -2356, -2415
  21235,  305,  305,  210,  2814,  810,  9999,  9999, -6,  16421, -2699,  346
  21316,  305,  305,  228,  5401,  971,  9999,  9999, -5,  15178, -5263,  6514
  21397,  305,  305,  270,  5434,  1398,  9999,  9999, -2,  13281,  712, -68
  21478,  305,  305,  364,  1531,  1450,  9999,  9999,  1,  5983,  4081,  2345
  21559,  305,  305,  468,  1260,  1353,  9999,  9999,  6,  1136, -5692, -2545
  21640,  305,  305,  476,  1481,  1258,  9999,  9999,  6, -975,  1305, -1902
  21721,  305,  305,  469,  1445,  1167,  9999,  9999,  6, -3015,  2365,  256
  21802,  305,  305,  445,  4633,  1084,  9999,  9999,  10, -4158, -434,  184
  21883,  305,  305,  412,  5478,  993,  9999,  9999,  5, -3604,  1064,  430
  21964,  305,  305,  323,  5376,  911,  9999,  9999, -2, -6567, -193,  455
  22045,  305,  305,  250,  7057,  685,  9999,  9999, -14, -4993,  4377, -2259
  22126,  305,  305,  201,  1992,  541,  8999,  5499, -32, -1273, -4184, -2931
  22207,  305,  305,  161,  694,  508,  8999,  6999, -35,  9988, -1459, -2527
  22288,  286,  305,  151,  662,  511,  8999,  6999, -35,  15431, -974, -662
  22369,  211,  305,  179,  4128,  414,  8999,  6999, -35,  16193, -5524, -2943
  22450,  221,  305,  248,  3945,  345,  7999,  5999, -35,  16869,  1025, -190
  22532,  288,  305,  337,  1519,  304,  7999,  5999, -35,  17386, -3399, -1799
  22613,  305,  305,  261,  1021,  288,  7999,  5999, -35,  17118, -2796, -2255
  22694,  305,  305,  195,  927,  288,  7999,  5999, -35,  17485, -2240, -2670
  22775,  305,  305,  160,  771,  3011,  9999,  7999, -19,  16853, -1218, -1185
  22856,  305,  305,  147,  652,  1435,  9999,  7999, -18,  17864, -1403, -1778
  22938,  291,  305,  397,  563,  826,  9999,  9999,  13,  14791, -4506, -652
  23018,  305,  305,  1424,  492,  618,  6499,  9999,  22,  12651,  922,  1000
  23099,  305,  305,  1848,  424,  571,  5499,  8999,  28,  286,  1729,  1250
  23180,  305,  305,  1830,  360,  473,  6999,  8999,  35, -13231,  1474, -2292
  23261,  305,  305,  1528,  310,  443,  6999,  8999,  35, -16301,  3110, -491
  23342,  305,  305,  1274,  292,  611,  7999,  9999,  23, -16316,  2644, -3047
  23423,  305,  305,  1028,  292,  2460,  9999,  9999,  14, -16249,  4420, -2554
  23505,  305,  305,  637,  202,  2129,  7999,  9999,  15, -12963,  2547,  1363
  23585,  305,  305,  470,  238,  1638,  9999,  9999,  0, -14633,  5596, -204
  23666,  305,  256,  358,  348,  1251,  9999,  9999,  4, -11669,  3082, -3044
  23747,  305,  288,  299,  487,  1034,  9999,  9999, -11, -4839,  1875,  2893
  23828,  272,  305,  275,  741,  886,  9999,  9999, -8, -3309, -3618, -4876
  23909,  240,  305,  269,  2092,  779,  9999,  9999, -2,  2920, -402, -2182
  23990,  270,  305,  291,  2440,  718,  9999,  9999, -10,  4659, -2932, -1501
  24072,  305,  305,  328,  2255,  663,  9999,  6499, -17,  2343,  2141,  2283
  24153,  305,  305,  358,  2212,  612,  9999,  7999, -23,  7430, -567, -4734
  24234,  305,  305,  327,  2013,  651,  9999,  7999, -18,  12467, -3118, -3404
  24315,  305,  305,  302,  874,  799,  9999,  9999,  0,  14672, -2674, -1829
  24396,  305,  305,  304,  648,  943,  9999,  9999, -5,  11647, -2485,  818
  24477,  305,  296,  319,  522,  1405,  9999,  9999, -1,  4850,  811, -1392
  24558,  305,  305,  321,  486,  1281,  9999,  9999, -4,  2363, -2574, -2646
  24639,  305,  305,  319,  473,  1191,  9999,  9999, -3,  1705,  688,  755
  24720,  305,  305,  315,  465,  1103,  9999,  9999, -3,  2096, -1528, -272
  24801,  305,  298,  308,  457,  1008,  9999,  9999, -3,  880, -167, -2432
  24882,  305,  298,  303,  479,  903,  9999,  9999, -4,  1864,  696,  2133
  24963,  305,  305,  279,  1270,  807,  9999,  9999,  0,  1661,  352,  1634
  25044,  305,  305,  206,  1221,  713,  9999,  9999, -10,  1806,  820, -1071
  25125,  305,  305,  217,  1157,  618,  9999,  6499, -22,  739,  145, -1892
  25206,  305,  305,  234,  1090,  529,  8999,  6999, -33,  10987, -2497, -8033
  25287,  217,  305,  303,  1028,  480,  8999,  6999, -35,  13836, -2922, -2151
  25368,  305,  305,  397,  995,  465,  8999,  6999, -35,  15603, -5589, -5416
  25449,  305,  305,  333,  1020,  488,  8999,  6999, -35,  16051, -4100, -1818
  25530,  305,  305,  291,  1002,  771,  9999,  9999, -3,  16771, -3400, -818
  25612,  305,  305,  274,  1052,  685,  9999,  9999, -14,  15402, -3133, -5103
  25693,  305,  305,  284,  1183,  619,  9999,  7999, -22,  12920, -3059,  717
  25774,  305,  305,  334,  1319,  565,  8999,  6999, -29,  12284, -2173,  330
  25855,  305,  305,  488,  1479,  526,  8999,  6999, -34,  15105, -3216, -1433
  25936,  305,  305,  432,  2605,  611,  9999,  7999, -23,  15761, -3755, -2962
  26017,  305,  305,  365,  5427,  518,  8999,  6999, -35,  16733, -75, -1225
  26098,  305,  305,  327,  6710,  574,  8999,  6999, -28,  16752, -5712, -3816
  26179,  305,  305,  348,  1261,  710,  9999,  9999, -11,  16263, -378, -3030
  26260,  305,  305,  333,  902,  796,  9999,  9999,  0,  14594, -7889,  963
  26341,  305,  305,  342,  709,  1753,  7499,  7499, -2,  9751,  9783,  3706
  26424,  305,  305,  369,  647,  2490,  9999,  9999,  0,  2324, -4446, -6975
  26503,  305,  305,  371,  555,  2759,  9999,  9999,  0,  1109, -4492,  3691
  26584,  305,  305,  365,  539,  2854,  9999,  9999,  0,  420,  1960,  1499
  26665,  305,  305,  357,  530,  2825,  9999,  9999, -1, -313, -853,  938
  26746,  305,  305,  349,  523,  2737,  9999,  9999, -1, -189,  4239,  932
  26827,  291,  305,  297,  516,  2635,  9999,  9999, -6, -97, -3657, -1566
  26908,  305,  305,  223,  507,  2605,  9999,  9999, -11,  222, -674, -927
  26989,  291,  305,  231,  497,  2698,  9999,  9999, -9,  1353, -231, -209
  27070,  305,  305,  255,  475,  2794,  9999,  9999, -6,  5340, -1451, -605
  27151,  244,  305,  304,  424,  2740,  9999,  9999, -7,  5773, -2551,  279
  27232,  305,  305,  372,  375,  2693,  9999,  9999,  11,  4614,  1705, -48
  27314,  305,  297,  451,  327,  2645,  9999,  9999,  4,  3718,  4723, -902
  27395,  305,  305,  502,  284,  2545,  9999,  9999,  5, -4012, -554,  95
  27476,  305,  305,  486,  215,  2408,  9999,  9999,  8, -4466, -1103, -4897
  27557,  305,  305,  459,  232,  2277,  9999,  9999,  3, -4268, -926, -671
  27638,  305,  286,  428,  260,  2153,  9999,  9999,  4, -4515,  192, -2093
  27719,  305,  228,  397,  302,  2041,  9999,  9999,  11, -4874, -339, -412
  27800,  305,  259,  361,  360,  1935,  9999,  9999, -5, -4240,  11, -2415
  27881,  305,  287,  324,  426,  1561,  9999,  9999, -6, -7074,  3861, -2723
  27962,  290,  298,  278,  592,  1178,  9999,  9999, -6, -971,  1953,  213
  28043,  277,  305,  249,  823,  1121,  9999,  9999, -6,  2792, -2772, -5269
  28124,  271,  305,  233,  931,  1143,  9999,  9999, -7,  2472,  3285, -796
  28205,  305,  305,  220,  1040,  1238,  9999,  9999, -7,  2536, -1183,  1195
  28286,  262,  305,  205,  1743,  1372,  9999,  9999, -9,  2756, -1375, -346
  28367,  243,  305,  196,  1778,  1250,  9999,  9999, -9,  2967,  1443,  592
  28448,  224,  305,  198,  1677,  1168,  9999,  9999, -8,  4358, -3275, -1467
  28529,  199,  305,  212,  1627,  1088,  9999,  9999, -7,  4358, -2073, -2027
  28610,  197,  305,  234,  1520,  1011,  9999,  9999, -2,  4600, -3067, -1287
  28691,  217,  305,  263,  1450,  928,  9999,  9999,  1,  5366, -60, -410
  28772,  237,  305,  298,  1385,  845,  9999,  9999,  1,  2866, -1114, -2013
  28853,  275,  305,  322,  1268,  751,  9999,  9999, -6,  124, -2437, -3581
  28934,  305,  305,  336,  1162,  642,  9999,  6499, -19, -364,  79,  1882
  29016,  305,  305,  354,  1047,  555,  6499,  2999, -30,  4802, -10057, -7048
  29097,  305,  305,  422,  992,  508,  8999,  6999, -35,  13676, -7190, -9423
  29178,  305,  305,  418,  1035,  516,  8999,  6999, -35,  15741, -3156, -3328
  29259,  305,  305,  356,  1102,  587,  8999,  6999, -26,  15829, -6021, -4974
  29340,  305,  305,  325,  1211,  568,  8999,  6999, -29,  16074, -4671,  367
  29421,  305,  305,  322,  1422,  557,  8999,  6999, -30,  16718, -7077, -3754
  29502,  305,  305,  350,  1901,  585,  8999,  6999, -26,  17064,  336,  1151
  29583,  305,  305,  396,  2097,  670,  9999,  7999, -16,  16849, -4911, -1535
  29664,  305,  305,  372,  2317,  735,  9999,  9999, -8,  16544, -1275, -732
  29745,  305,  305,  375,  1673,  784,  9999,  9999, -2,  12219, -2604,  1419
  29826,  305,  305,  388,  1303,  811,  9999,  9999,  1,  7194,  882, -2592
  29907,  305,  305,  392,  1217,  772,  9999,  9999, -3,  3095, -2584, -1949
  29988,  305,  305,  797,  1170,  700,  9999,  9999, -12,  123, -1168,  429
  30069,  305,  305,  389,  1146,  608,  9999,  6499, -24,  368,  345,  56
  30150,  305,  305,  287,  1110,  572,  8999,  6999, -28,  11324,  819, -3311
  30231,  305,  305,  258,  1013,  849,  9999,  9999, -8,  15161, -6579, -5650
  30312,  305,  305,  260,  897,  991,  9999,  9999, -7,  13949, -2970,  89
  30393,  305,  305,  283,  808,  1188,  9999,  9999, -5,  9981,  1140,  1731
  30474,  305,  305,  308,  737,  1338,  9999,  9999, -3,  4828,  348,  1488
  30555,  305,  305,  370,  665,  1428,  9999,  9999,  1,  4127, -1360, -3998
  30636,  305,  305,  433,  588,  1325,  9999,  9999,  2,  2727, -151, -2515
  30717,  305,  305,  434,  517,  1220,  9999,  9999,  2,  426, -550, -722
  30799,  305,  305,  425,  450,  1125,  9999,  9999,  2, -470,  2186, -1196
  30880,  305,  305,  412,  373,  1023,  9999,  9999,  2, -959, -147, -3025
  30961,  305,  305,  355,  296,  927,  9999,  9999, -1, -1087,  2307, -3566
  31042,  305,  305,  286,  953,  830,  9999,  9999, -4, -1842,  319, -352
  31123,  305,  305,  250,  5150,  734,  9999,  9999, -8, -1565, -489, -1004
  31204,  305,  305,  216,  5948,  636,  9999,  6499, -20,  884, -6085, -4328
  31285,  305,  305,  189,  4692,  529,  8999,  6999, -33,  7041, -8105, -3231
  31366,  270,  305,  184,  3616,  409,  8999,  6999, -35,  12804, -1946, -5394
  31447,  257,  305,  218,  4134,  330,  7999,  5999, -35,  15675, -4543, -2687
  31528,  269,  305,  296,  3381,  273,  7999,  5999, -35,  17045, -3253, -6090
  31609,  305,  305,  266,  1337,  232,  7999,  5999, -35,  17006, -1438, -1325
  31690,  305,  305,  175,  970,  213,  7999,  5999, -35,  16619, -2652, -3876
  31771,  305,  305,  120,  922,  209,  7999,  5999, -35,  17053, -3048, -415
  31852,  305,  305,  88,  805,  2948,  9999,  7999, -27,  17071, -2047, -2042
  31933,  203,  305,  79,  716,  1290,  9999,  7999, -25,  17565, -4103, -1228
  32014,  305,  305,  672,  651,  790,  9999,  9999,  1,  16748,  190,  352
  32095,  305,  305,  1591,  601,  588,  5499,  8999,  26,  16877, -4863,  1292
  32176,  305,  305,  2102,  556,  537,  5499,  8999,  32,  4912,  4338, -2711
  32257,  305,  287,  2244,  488,  476,  6999,  8999,  35, -6842,  4321, -1517
  32338,  305,  305,  2034,  400,  396,  5999,  7999,  35, -11964,  4816, -850
  32419,  305,  305,  1691,  318,  291,  5999,  7999,  35, -15878,  3705, -1966
  32500,  305,  305,  1381,  260,  394,  5999,  7999,  35, -16790,  5735, -1353
  32581,  305,  298,  1168,  227,  714,  9999,  9999,  10, -17330,  3425, -2138
  32662,  305,  305,  941,  126,  2352,  7999,  9999,  22, -14686,  2075,  4861
  32744,  305,  305,  656,  158,  1720,  9999,  9999,  7, -15783,  3352, -2161
  32825,  305,  166,  488,  251,  1348,  7999,  9999,  23, -13668,  2539,  2240
  32906,  305,  220,  384,  388,  1037,  9999,  9999, -8, -12709,  3819, -2812
  32987,  305,  305,  306,  1426,  819,  9999,  9999, -8, -12944,  1752, -2638
  33068,  305,  305,  239,  2574,  654,  9999,  6499, -18, -7774, -128, -976
  33149,  283,  305,  191,  2020,  547,  6499,  4499, -31,  7997, -8622, -7292
  33230,  237,  305,  189,  2031,  514,  8999,  6999, -35,  12321,  7162, -5699
  33311,  253,  305,  233,  2252,  527,  8999,  6999, -34,  14798, -5706, -402
  33392,  305,  305,  309,  2333,  604,  9999,  7999, -24,  16563, -998, -105
  33473,  305,  305,  316,  1263,  778,  9999,  9999, -2,  16572, -2455, -1815
  33554,  305,  305,  321,  676,  950,  9999,  9999, -5,  15442, -2093,  903
  33635,  305,  305,  346,  507,  1504,  9999,  9999, -1,  6745, -454, -1946
  33716,  305,  305,  362,  442,  1406,  9999,  9999,  0,  3255,  1101, -676
  33797,  305,  298,  363,  420,  1320,  9999,  9999,  0,  1650,  1330,  1676
  33878,  305,  298,  361,  416,  1221,  9999,  9999,  0,  307, -1083, -2931
  33959,  305,  298,  354,  414,  1126,  9999,  9999, -1,  589,  2094, -761
  34040,  305,  305,  344,  411,  1036,  9999,  9999, -2,  15,  2863,  155
  34121,  305,  305,  336,  408,  938,  9999,  9999, -2,  1148,  1537, -3193
  34202,  305,  305,  312,  847,  835,  9999,  9999, -1,  481, -636, -1013
  34283,  305,  305,  224,  1222,  740,  9999,  9999, -7,  676,  2152,  3704
  34364,  305,  305,  229,  1152,  629,  9999,  6499, -21,  223,  871, -1282
  34445,  305,  305,  237,  1090,  539,  8999,  5499, -32,  6515, -1880, -5120
  34526,  235,  305,  286,  1032,  487,  8999,  6999, -35,  16178, -1388, -2963
  34607,  305,  305,  398,  993,  474,  8999,  6999, -35,  16210, -3500, -2506
  34688,  305,  305,  353,  1010,  489,  8999,  6999, -35,  16668, -2816, -2729
  34769,  305,  305,  305,  997,  728,  9999,  9999, -9,  16914, -3936, -2477
  34850,  305,  305,  285,  1030,  705,  9999,  9999, -11,  16258, -1608,  4952
  34932,  305,  305,  291,  1167,  626,  9999,  7999, -21,  13975, -2768,  2338
  35013,  305,  305,  313,  1294,  567,  8999,  6999, -29,  11153, -2417, -1150
  35094,  305,  305,  474,  1255,  521,  8999,  6999, -34,  13661, -5870, -2037
  35175,  305,  305,  450,  1973,  507,  8999,  6999, -35,  15397, -3260, -2396
  35256,  305,  305,  370,  4456,  497,  8999,  6999, -35,  16077, -220, -646
  35337,  305,  305,  325,  6717,  533,  8999,  6999, -33,  16754, -7187, -4717
  35418,  305,  305,  312,  1249,  655,  9999,  7999, -18,  16867,  953, -147
  35499,  305,  305,  356,  1023,  825,  9999,  9999,  2,  17357, -2674, -110
  35580,  305,  305,  334,  753,  1670,  9999,  9999, -2,  15392,  2080,  4349
  35661,  305,  305,  375,  716,  2923,  9999,  9999,  1,  4524,  2108,  1723
  35742,  305,  305,  390,  633,  3429,  9999,  9999,  0,  1465, -318, -593
  35823,  305,  305,  388,  516,  3399,  9999,  9999,  0,  190,  1125, -686
  35904,  305,  305,  379,  504,  3269,  9999,  9999,  0, -477, -4969, -1332
  35985,  305,  305,  372,  494,  3187,  9999,  9999,  0,  602,  803, -780
  36066,  305,  305,  293,  486,  3072,  9999,  9999, -7,  75, -150, -2062
  36147,  305,  305,  251,  478,  2986,  9999,  9999, -9,  286,  269, -3363
  36228,  305,  305,  264,  465,  2884,  9999,  9999, -6,  1739, -918, -1288
  36309,  305,  305,  292,  441,  2814,  9999,  9999, -5,  4301, -1467, -1055
  36390,  305,  298,  339,  398,  2751,  9999,  9999,  0,  4301, -262, -2685
  36471,  305,  296,  401,  358,  2695,  9999,  9999,  3,  3195,  795,  730
  36552,  305,  298,  461,  313,  2627,  9999,  9999,  4,  974,  1555,  526
  36633,  305,  305,  496,  278,  2524,  9999,  9999,  5, -1510,  1847,  510
  36714,  305,  305,  491,  208,  2411,  9999,  9999,  9, -1362, -278, -1204
  36795,  305,  305,  479,  213,  2302,  9999,  9999,  4, -3630,  632,  209
  36876,  305,  275,  459,  236,  2162,  9999,  9999,  6, -4655,  3100,  138
  36957,  305,  203,  425,  273,  2044,  7999,  9999,  15, -4781, -267,  48
  37038,  305,  225,  384,  324,  1929,  9999,  9999, -2, -5930,  2768, -2174
  37119,  305,  268,  337,  408,  1519,  9999,  9999, -6, -8068,  4161,  1268
  37200,  305,  305,  283,  653,  1053,  9999,  9999, -9, -5214, -2767, -2524
  37282,  305,  305,  242,  1001,  927,  9999,  9999, -7,  2217, -2869, -307
  37363,  272,  305,  222,  1380,  1002,  9999,  9999, -9,  3145, -3898, -3003
  37444,  291,  305,  210,  1913,  1128,  9999,  9999, -5,  4935, -1434, -2302
  37525,  254,  305,  202,  1879,  1374,  9999,  9999, -11,  5075, -1439,  1781
  37606,  236,  305,  198,  1812,  1271,  9999,  9999, -8,  4292, -613, -818
  37687,  226,  305,  207,  1730,  1190,  9999,  9999, -7,  6029,  94, -1054
  37768,  214,  305,  230,  1884,  1115,  9999,  9999, -3,  5672, -2282, -2386
  37849,  218,  305,  263,  1545,  1038,  9999,  9999, -2,  5744, -3393, -556
  37930,  244,  305,  307,  1480,  962,  9999,  9999,  3,  3209,  1880, -367
  38011,  287,  305,  344,  1395,  877,  9999,  9999,  5,  2056, -967, -1390
  38092,  305,  305,  367,  1376,  775,  9999,  9999, -3, -1161,  4376, -1233
  38173,  305,  305,  372,  1175,  670,  9999,  6499, -16, -2570, -205, -797
  38254,  305,  305,  375,  1051,  573,  8999,  5499, -28,  2953,  3903,  3920
  38337,  305,  305,  422,  971,  508,  8999,  6999, -35,  12862, -5088, -5473
  38416,  305,  305,  429,  981,  497,  8999,  6999, -35,  14667, -1982,  84
  38497,  305,  305,  351,  1051,  521,  8999,  6999, -34,  15769, -2064, -1700
  38578,  305,  305,  309,  1083,  534,  8999,  6999, -33,  16550, -739, -1261
  38659,  305,  305,  296,  1204,  512,  8999,  6999, -35,  16110,  453,  2307
  38740,  305,  305,  311,  1569,  518,  8999,  6999, -35,  17577, -1373,  113
  38821,  305,  305,  359,  1888,  567,  8999,  6999, -29,  16511, -621, -932
  38902,  305,  305,  332,  2229,  672,  9999,  7999, -16,  16658, -4400, -1493
  38983,  305,  305,  328,  2141,  726,  9999,  9999, -9,  17437, -6096,  1269
  39064,  305,  305,  357,  1332,  836,  9999,  9999,  0,  13388,  1598,  870
  39145,  305,  305,  399,  1183,  932,  9999,  9999,  3,  6939, -520,  1186
  39226,  305,  305,  534,  1108,  1063,  9999,  9999,  7,  1543,  1211,  683
  39307,  305,  305,  378,  1066,  981,  9999,  9999,  1, -2024,  3220, -644
  39388,  305,  305,  322,  1046,  670,  9999,  6499, -16, -3490, -289, -2555
  39469,  305,  305,  265,  1039,  550,  8999,  5499, -31,  139,  2032, -3120
  39550,  305,  305,  223,  1001,  700,  9999,  9999, -12,  9970, -8146, -5299
  39632,  305,  305,  211,  908,  892,  9999,  9999, -11,  13786,  315,  2590
  39713,  305,  305,  223,  802,  944,  9999,  9999, -9,  12558, -3540,  49
  39794,  305,  305,  248,  723,  1134,  9999,  9999, -8,  7621, -1177,  63
  39875,  305,  305,  339,  652,  1371,  9999,  9999,  1,  7265, -487, -1825
  39956,  305,  305,  402,  578,  1255,  9999,  9999,  2,  6026,  1772, -1092
  40037,  305,  305,  427,  503,  1153,  9999,  9999,  2,  1951,  1223, -304
  40118,  305,  305,  432,  429,  1059,  9999,  9999,  2, -557,  4390,  3744
  40199,  305,  305,  381,  352,  964,  9999,  9999,  0, -1806,  1161, -2069
  40280,  305,  305,  317,  268,  866,  9999,  9999, -1, -895,  1973, -1298
  40361,  305,  305,  291,  511,  757,  9999,  9999, -5, -1756,  282, -1576
  40442,  305,  305,  258,  4089,  661,  9999,  6499, -17, -974, -1025,  879
  40523,  305,  305,  234,  4549,  560,  8999,  5499, -30,  5201, -6529, -4555
  40604,  305,  305,  229,  4379,  454,  8999,  6999, -35,  12230,  6285, -1819
  40685,  305,  305,  272,  3910,  377,  7999,  5999, -35,  15604, -6367, -3295
  40766,  305,  305,  366,  1940,  327,  7999,  5999, -35,  17268, -1508, -1870
  40847,  305,  305,  312,  1053,  282,  7999,  5999, -35,  17215, -2486, -93
  40928,  305,  305,  226,  933,  283,  7999,  5999, -35,  16890, -1388, -342
  41009,  305,  305,  177,  830,  2489,  9999,  7999, -18,  16844, -2474, -2039
  41090,  305,  305,  154,  711,  2963,  9999,  7999, -19,  17949,  715,  62
  41177,  305,  305,  636,  629,  905,  6499,  9999,  23,  15634,  322,  1463
  41258,  305,  268,  1307,  562,  588,  5499,  8999,  26,  8376,  2300,  251
  41339,  305,  289,  1707,  505,  517,  5499,  8999,  35, -310,  5661,  624
  41420,  305,  298,  1683,  448,  451,  6999,  8999,  35, -9958,  2779,  1554
  41501,  305,  305,  1469,  389,  541,  6999,  8999,  32, -14510,  5399,  1256
  41582,  305,  305,  1249,  355,  886,  7999,  9999,  15, -15741,  5228, -3125
  41663,  305,  305,  741,  319,  2473,  9999,  9999,  13, -16900,  2533, -1665
  41744,  305,  305,  467,  238,  1848,  9999,  9999,  6, -13244,  2224,  3837
  41825,  305,  305,  354,  323,  1474,  9999,  9999, -6, -10055,  2538, -271
  41906,  305,  298,  297,  418,  1294,  9999,  9999, -4, -6591,  1518, -978
  41987,  305,  305,  279,  496,  1155,  9999,  9999, -6,  376,  23, -2188
  42068,  216,  298,  302,  535,  1073,  9999,  9999, -10,  1463,  796,  1126
  42149,  236,  305,  337,  640,  1016,  9999,  9999,  5,  2697, -1514,  988
  42230,  305,  305,  391,  731,  998,  9999,  9999,  12,  6189, -113,  891
  42311,  305,  305,  490,  759,  878,  9999,  9999,  4, -2094, -3077, -1289
  42392,  305,  305,  447,  1168,  784,  9999,  9999, -2, -6181,  938,  905
  42473,  305,  305,  380,  2160,  606,  9999,  6499, -24, -6146, -1134, -1963
  42555,  305,  305,  312,  1933,  488,  8999,  5499, -35,  1473,  762, -2596
  42636,  305,  305,  252,  1823,  471,  6499,  4499, -35,  12135, -10277, -5434
  42717,  305,  305,  223,  1822,  465,  8999,  6999, -35,  17976, -713, -4631
  42798,  305,  305,  228,  1497,  714,  9999,  9999, -10,  16652, -5262, -964
  42879,  305,  305,  260,  693,  1156,  9999,  9999, -9,  15597, -2238, -3035
  42960,  305,  305,  279,  536,  1207,  9999,  9999, -4,  13042,  2333,  2719
  43041,  305,  305,  321,  438,  1169,  9999,  9999, -2,  6948, -1472, -557
  43122,  305,  305,  383,  380,  1116,  9999,  9999,  1,  4397, -127, -541
  43203,  305,  286,  356,  338,  1043,  9999,  9999,  2,  1942, -2362, -547
  43284,  305,  286,  362,  302,  956,  9999,  9999,  0,  494,  1823,  3271
  43365,  305,  286,  412,  265,  858,  9999,  9999,  4, -804,  808, -1073
  43446,  305,  305,  453,  579,  754,  9999,  9999, -5, -793,  2394, -92
  43527,  305,  305,  486,  1140,  638,  9999,  6499, -20, -2330,  893,  1446
  43608,  305,  305,  517,  1018,  544,  8999,  5499, -32,  4281, -3158, -5119
  43689,  305,  305,  450,  949,  514,  8999,  6999, -35,  15749, -2497, -5528
  43770,  305,  305,  371,  968,  656,  9999,  7999, -18,  16933,  917, -750
  43851,  305,  305,  329,  930,  714,  9999,  9999, -10,  17875, -3591, -2616
  43932,  305,  305,  316,  982,  623,  9999,  7999, -22,  15035, -2682, -1845
  44013,  305,  305,  323,  1064,  550,  8999,  6999, -31,  11017, -3220, -657
  44094,  305,  305,  461,  1128,  482,  8999,  6999, -35,  14511, -3508, -125
  44175,  305,  305,  463,  1218,  461,  8999,  6999, -35,  15305, -3130, -1602
  44256,  305,  305,  363,  2356,  451,  8999,  6999, -35,  16163, -4186, -2515
  44337,  305,  305,  305,  6086,  458,  8999,  6999, -35,  17512, -2391, -2307
  44418,  305,  305,  276,  361,  508,  8999,  6999, -35,  17146,  1337, -1102
  44499,  305,  305,  316,  1302,  642,  9999,  7999, -19,  17904, -2111,  965
  44580,  305,  305,  269,  928,  816,  9999,  9999, -10,  17088, -7253, -1892
  44661,  305,  305,  307,  692,  2273,  9999,  9999, -4,  14631, -584, -1649
  44742,  305,  305,  368,  683,  3658,  9999,  9999,  2,  8622,  1688,  3712
  44823,  305,  305,  418,  648,  3484,  9999,  9999,  2,  3467, -617, -2364
  44904,  305,  305,  444,  476,  3403,  9999,  9999,  2, -455,  2414, -2151
  44985,  305,  305,  383,  429,  3290,  9999,  9999,  0, -1278,  731, -1186
  45066,  305,  305,  329,  413,  3151,  9999,  9999, -3, -1592, -961, -1974
  45147,  305,  305,  343,  400,  3056,  9999,  9999, -1, -1152,  1533, -2384
  45228,  305,  305,  359,  386,  2958,  9999,  9999, -1, -27, -1238, -2051
  45309,  305,  305,  383,  366,  2873,  9999,  9999,  0,  504, -1502, -624
  45390,  305,  305,  410,  343,  2783,  9999,  9999,  2,  474,  282,  216
  45471,  305,  305,  439,  318,  2693,  9999,  9999,  2,  985,  33, -2067
  45552,  305,  298,  467,  294,  2594,  9999,  9999,  4, -588,  105, -1916
  45633,  305,  305,  491,  265,  2489,  9999,  9999,  5, -1368,  2399,  2403
  45714,  305,  305,  475,  206,  2384,  9999,  9999,  7, -1603,  2523, -2654
  45795,  305,  289,  460,  221,  2263,  9999,  9999,  5, -3606,  2327,  1691
  45876,  305,  265,  436,  253,  2157,  9999,  9999,  5, -4818,  1483, -2709
  45957,  305,  202,  402,  299,  2044,  9999,  9999,  14, -4810,  290, -1059
  46038,  305,  231,  365,  356,  1932,  9999,  9999, -4, -4358,  2937, -1621
  46119,  305,  277,  320,  438,  1355,  9999,  9999, -8, -8222,  2787, -3757
  46200,  305,  305,  267,  769,  917,  9999,  9999, -8, -3852,  1850,  330
  46281,  273,  305,  225,  1640,  815,  9999,  9999, -7,  2553, -866,  7
  46362,  305,  305,  202,  2138,  859,  9999,  9999, -7,  4024, -2715, -3788
  46443,  272,  305,  187,  2082,  976,  9999,  9999, -14,  4362, -999, -1573
  46524,  224,  305,  176,  1968,  1140,  9999,  9999, -12,  4754, -918, -1301
  46605,  199,  305,  168,  1776,  1263,  9999,  9999, -11,  7527, -2437, -1122
  46686,  191,  305,  188,  1868,  1192,  9999,  9999, -4,  8212, -2986,  2874
  46767,  186,  305,  229,  1638,  1132,  9999,  9999, -4,  8224,  2056,  147
  46848,  206,  305,  282,  1561,  1071,  9999,  9999,  3,  3898,  175, -2576
  46929,  238,  305,  330,  1535,  998,  9999,  9999,  5,  2458,  3578,  499
  47010,  273,  305,  372,  1434,  892,  9999,  9999,  5, -455,  377, -2322
  47091,  305,  305,  380,  1344,  782,  9999,  9999, -2, -2297, -1028,  2758
  47172,  305,  305,  376,  1181,  674,  9999,  7999, -15, -3459,  716, -2949
  47253,  305,  305,  370,  1053,  572,  8999,  5499, -28,  2427, -2782, -4031
  47334,  305,  305,  411,  967,  508,  8999,  6999, -35,  11813, -7864, -4843
  47416,  305,  305,  430,  965,  492,  8999,  6999, -35,  14648, -3894, -3273
  47497,  305,  305,  349,  1038,  514,  8999,  6999, -35,  16368, -2658, -979
  47578,  305,  305,  305,  1072,  530,  8999,  6999, -33,  16185, -4800, -2600
  47659,  305,  305,  291,  1180,  509,  8999,  6999, -35,  16170, -629, -4
  47740,  305,  305,  303,  1490,  511,  8999,  6999, -35,  16612, -1952, -284
  47823,  305,  305,  346,  1850,  554,  8999,  6999, -30,  16769, -1450,  1777
  47904,  305,  305,  326,  2186,  667,  9999,  7999, -16,  17451, -1180, -2086
  47985,  305,  305,  321,  2161,  713,  9999,  9999, -10,  17569, -1037, -1808
  48066,  305,  305,  346,  1362,  819,  9999,  9999,  0,  13372, -2921,  1335
  48147,  305,  305,  385,  1202,  916,  9999,  9999,  1,  8798,  1210,  1094
  48228,  305,  305,  523,  1117,  1049,  9999,  9999,  7,  2171, -1586, -886
  48309,  305,  305,  376,  1068,  1000,  9999,  9999,  0, -765,  814,  1229
  48390,  305,  305,  323,  1045,  697,  9999,  9999, -12, -3568,  3468, -484
  48471,  305,  305,  265,  1036,  554,  8999,  5499, -30, -1205,  989, -2297
  48552,  305,  305,  216,  1013,  537,  8999,  6999, -32,  11440, -977, -2995
  48633,  305,  305,  195,  916,  800,  9999,  9999, -13,  14755, -2145, -2029
  48714,  305,  305,  206,  819,  887,  9999,  9999, -11,  13418, -3216,  3516
  48795,  305,  305,  236,  738,  1168,  9999,  9999, -9,  13047,  1407, -339
  48876,  305,  305,  361,  668,  1363,  9999,  9999,  3,  8658, -9,  1656
  48957,  305,  305,  436,  591,  1255,  9999,  9999,  2,  5637, -2285, -4017
  49038,  305,  305,  470,  516,  1153,  9999,  9999,  3,  403,  2207, -1013
  49119,  305,  305,  473,  441,  1062,  9999,  9999,  4, -1691,  457, -167
  49200,  305,  305,  389,  356,  967,  9999,  9999,  0, -1254,  452,  52
  49281,  305,  305,  357,  267,  871,  9999,  9999,  0, -1758,  643,  1392
  49362,  305,  305,  327,  188,  772,  9999,  9999,  3, -1999,  1269, -3720
  49443,  305,  305,  299,  3619,  664,  9999,  6499, -17, -2044,  961,  1228
  49524,  305,  305,  269,  4375,  569,  8999,  5499, -28,  1035,  2863, -1059
  49605,  305,  305,  252,  3570,  479,  6499,  4499, -35,  7442, -9517, -7436
  49686,  305,  305,  269,  4157,  393,  7999,  5999, -35,  16165, -4768, -4172
  49767,  305,  305,  347,  3331,  346,  7999,  5999, -35,  16993, -2491, -3342
  49848,  305,  305,  366,  1266,  314,  7999,  5999, -35,  16864, -2867, -3143
  49929,  305,  305,  263,  935,  296,  7999,  5999, -35,  17012, -849, -624
  50010,  305,  305,  200,  872,  2209,  9999,  9999, -14,  17469, -4276, -2910
  50091,  305,  305,  166,  748,  2973,  9999,  7999, -18,  17452,  586,  3057
  50172,  305,  305,  390,  655,  1273,  9999,  9999,  12,  14813,  498, -1696
  50253,  305,  265,  1288,  580,  783,  9999,  9999,  2,  11893, -4290,  1741
  50334,  305,  277,  1511,  512,  550,  5499,  8999,  31,  2718,  3520, -708
  50415,  305,  298,  1603,  445,  452,  5499,  8999,  35, -2888,  2825, -5471
  50496,  305,  305,  1512,  379,  477,  6999,  8999,  35, -12914,  6581, -4019
  50577,  305,  305,  1304,  333,  704,  9999,  9999,  12, -16093,  6580, -1644
  50658,  305,  305,  977,  285,  2439,  7999,  9999,  15, -13614,  2895,  2618
  50739,  305,  305,  623,  200,  2049,  9999,  9999,  14, -15822,  2514, -1461
  50820,  305,  305,  446,  266,  1565,  9999,  9999, -1, -11667,  2831,  732
  50901,  305,  260,  355,  371,  1282,  9999,  9999,  4, -11303,  303,  2155
  50982,  305,  305,  297,  515,  1058,  9999,  9999, -14, -6464,  2935, -2158
  51063,  252,  305,  270,  1040,  915,  9999,  9999, -4, -3545,  142, -462
  51144,  239,  305,  259,  2580,  812,  9999,  9999,  2,  1420, -978, -1656
  51225,  257,  305,  276,  2404,  750,  9999,  9999, -6,  3649,  3479,  1105
  51306,  305,  305,  299,  2357,  671,  9999,  6499, -16, -95, -1063, -1179
  51387,  305,  305,  336,  2262,  587,  8999,  6999, -26,  7628,  1411, -3673
  51468,  305,  305,  336,  2104,  601,  9999,  7999, -24,  12880, -4216, -3689
  51549,  305,  305,  303,  1928,  604,  9999,  7999, -24,  15407, -2740, -2423
  51630,  305,  305,  300,  840,  870,  9999,  9999, -8,  16256, -1911,  387
  51711,  305,  305,  328,  623,  1375,  9999,  9999, -2,  15000, -3683,  561
  51792,  305,  305,  379,  483,  1329,  9999,  9999,  1,  10961, -106,  716
  51873,  305,  305,  366,  405,  1257,  9999,  9999,  0,  2631,  795, -552
  51954,  305,  305,  382,  382,  1167,  9999,  9999,  0, -597,  96, -1713
  52035,  305,  286,  385,  368,  1074,  9999,  9999,  2, -66, -959, -1029
  52116,  305,  286,  391,  355,  979,  9999,  9999,  1, -573,  1560, -842
  52197,  305,  286,  292,  342,  879,  9999,  9999, -6, -638, -565, -1363
  52278,  305,  305,  291,  789,  776,  9999,  9999, -3, -771,  2366, -194
  52359,  305,  305,  299,  1150,  664,  9999,  6499, -17,  401, -3364, -3947
  52440,  305,  305,  320,  1079,  575,  8999,  5499, -28,  5127,  1248, -2405
  52521,  305,  305,  376,  1017,  516,  8999,  6999, -35,  13062, -1758, -5683
  52602,  305,  305,  443,  977,  502,  8999,  6999, -35,  15567, -5110, -4120
  52683,  305,  305,  369,  1005,  522,  8999,  6999, -34,  16568, -2055, -3822
  52764,  305,  305,  322,  966,  775,  9999,  9999, -3,  16529, -1172, -1730
  52845,  305,  305,  307,  1015,  667,  9999,  7999, -16,  15134, -6644, -97
  52926,  305,  305,  313,  1112,  607,  9999,  7999, -24,  15217, -3921, -1706
  53007,  305,  305,  407,  1250,  555,  8999,  6999, -30,  13063, -2058, -562
  53088,  305,  305,  509,  1498,  527,  8999,  6999, -34,  16161, -1516, -2120
  53169,  305,  305,  419,  2756,  508,  8999,  6999, -35,  16163, -3242, -4842
  53250,  305,  305,  358,  5791,  519,  8999,  6999, -35,  16710, -2521, -4129
  53331,  305,  266,  327,  378,  587,  8999,  6999, -26,  17115, -6075, -2606
  53412,  305,  305,  367,  1204,  772,  9999,  9999, -3,  16853, -3027, -226
  53493,  305,  305,  322,  844,  998,  7499,  7499, -6,  16975, -8498, -977
  53574,  305,  305,  356,  674,  2043,  9999,  9999,  0,  7337, -639, -2315
  53655,  305,  305,  375,  624,  2623,  9999,  9999,  0,  2908,  6492,  2820
  53736,  305,  305,  379,  540,  3022,  9999,  9999,  0,  1018,  1682,  1858
  53817,  305,  305,  374,  522,  3031,  9999,  9999,  0,  369, -1426,  575
  53898,  305,  305,  365,  513,  3010,  9999,  9999,  0,  272,  732, -1544
  53979,  305,  305,  350,  505,  3013,  9999,  9999, -1,  93,  574, -1026
  54060,  291,  305,  251,  495,  2984,  9999,  9999, -12,  716, -2459, -3746
  54141,  305,  305,  245,  485,  2941,  9999,  9999, -8,  131,  836, -1438
  54222,  305,  305,  260,  473,  2850,  9999,  9999, -7,  4870,  129,  769
  54303,  305,  305,  302,  433,  2790,  9999,  9999, -2,  5910, -4672,  595
  54384,  305,  305,  365,  380,  2739,  9999,  9999,  1,  5683, -3236, -2000
  54465,  305,  305,  438,  336,  2682,  9999,  9999,  3,  2436, -711, -1545
  54546,  305,  305,  496,  299,  2600,  9999,  9999,  6,  402, -1606,  1916
  54627,  305,  305,  508,  249,  2508,  9999,  9999,  6, -676,  610,  585
  54708,  305,  305,  511,  195,  2387,  9999,  9999,  8, -3167,  2516, -1095
  54789,  305,  305,  496,  205,  2266,  9999,  9999,  5, -4561,  1223,  437
  54870,  305,  233,  469,  226,  2126,  9999,  9999,  14, -5670, -604, -3153
  54951,  305,  198,  431,  267,  2006,  9999,  9999,  10, -4826,  1005, -2380
  55032,  305,  219,  390,  320,  1892,  9999,  9999,  0, -7708,  3769, -1385
  55113,  305,  264,  336,  415,  1444,  9999,  9999, -7, -9581,  1561,  1230
  55194,  305,  305,  281,  699,  1058,  9999,  9999, -10, -2225, -2025, -5150
  55275,  270,  305,  245,  1188,  952,  9999,  9999, -5,  2126, -3779, -882
  55356,  270,  305,  224,  2114,  1053,  9999,  9999, -5,  5261, -1207,  550
  55437,  291,  305,  215,  2042,  1221,  9999,  9999, -8,  4408,  117, -2768
  55518,  271,  305,  202,  1811,  1354,  9999,  9999, -12,  3995, -3615, -3835
  55599,  241,  305,  203,  1740,  1224,  9999,  9999, -9,  3430, -479,  2619
  55680,  225,  305,  213,  1665,  1145,  9999,  9999, -5,  6312,  658, -2143
  55761,  214,  305,  240,  1719,  1076,  9999,  9999, -2,  6925, -3900, -759
  55842,  226,  305,  279,  1552,  995,  9999,  9999,  1,  3629, -4024, -680
  55923,  273,  305,  313,  1455,  911,  9999,  9999,  4,  2480,  3162, -2018
  56004,  305,  305,  346,  1519,  817,  9999,  9999,  3, -375, -993, -2428
  56085,  305,  305,  357,  1231,  714,  9999,  9999, -10, -1487, -423, -676
  56166,  305,  305,  359,  1112,  611,  9999,  6499, -23, -2081,  720, -50
  56247,  305,  305,  360,  979,  519,  8999,  5499, -35,  6332,  947, -3517
  56328,  305,  305,  424,  929,  479,  8999,  6999, -35,  16152,  1052, -1868
  56409,  305,  305,  370,  996,  493,  8999,  6999, -35,  17226, -1124, -921
  56490,  305,  305,  315,  1074,  553,  8999,  6999, -30,  16502, -2722, -3239
  56571,  305,  305,  292,  1158,  521,  8999,  6999, -34,  16851, -2354, -3579
  56652,  305,  305,  296,  1372,  516,  8999,  6999, -35,  16708, -5327, -3136
  56733,  305,  305,  337,  1820,  547,  8999,  6999, -31,  16945, -2428, -633
  56814,  305,  305,  347,  2177,  656,  9999,  7999, -18,  17523, -2694, -619
  56895,  305,  305,  331,  2327,  713,  9999,  9999, -10,  17146,  1227,  818
  56976,  305,  305,  345,  1473,  797,  9999,  9999,  0,  13573, -1909,  586
  57057,  305,  305,  374,  1256,  862,  9999,  9999,  1,  6349,  2111,  309
  57138,  305,  305,  393,  1167,  840,  9999,  9999,  2,  1055,  878,  2265
  57222,  305,  305,  713,  1129,  747,  9999,  9999, -6, -472, -2767, -6
  57302,  305,  305,  321,  1104,  643,  9999,  6499, -19, -247,  1347, -1005
  57383,  305,  305,  268,  1077,  573,  6499,  2999, -28,  4186, -8278, -5448
  57464,  305,  305,  235,  1009,  791,  9999,  9999, -1,  12131, -5868, -5257
  57545,  305,  305,  234,  916,  1001,  9999,  9999, -8,  14024, -771,  4996
  57626,  305,  305,  255,  827,  1115,  9999,  9999, -7,  10784,  1173,  2876
  57707,  305,  305,  281,  752,  1313,  9999,  9999, -5,  5704, -480, -1061
  57789,  305,  305,  343,  682,  1432,  9999,  9999,  0,  4651,  59, -2210
  57869,  305,  305,  425,  611,  1317,  9999,  9999,  3,  3836,  757,  3741
  57950,  305,  305,  436,  538,  1213,  9999,  9999,  2,  1406,  1484,  2219
  58031,  305,  305,  434,  463,  1119,  9999,  9999,  2, -1648,  3741, -2393
  58112,  305,  305,  422,  386,  1030,  9999,  9999,  2, -1627,  1027,  635
  58193,  305,  305,  349,  312,  921,  9999,  9999, -2, -1188, -852, -1539
  58274,  305,  305,  290,  243,  826,  9999,  9999, -4, -1140,  533, -3512
  58356,  305,  305,  256,  4476,  729,  9999,  9999, -8, -446,  1705, -827
  58436,  305,  305,  226,  4657,  629,  9999,  6499, -21,  1030, -2766, -851
  58517,  305,  305,  204,  4360,  523,  8999,  6999, -34,  8322, -868, -2175
  58598,  305,  305,  213,  4302,  423,  8999,  6999, -35,  13640, -4708, -5601
  58679,  305,  305,  263,  4097,  333,  7999,  5999, -35,  15140, -558, -3605
  58760,  305,  305,  340,  1948,  281,  7999,  5999, -35,  17131, -5454, -1857
  58841,  305,  305,  258,  1080,  255,  7999,  5999, -35,  17144, -3057, -1814
  58923,  305,  305,  182,  929,  254,  7999,  5999, -35,  16578, -1520, -1177
  59003,  305,  305,  137,  845,  2463,  9999,  7999, -23,  16825, -1387, -233
  59084,  305,  305,  115,  739,  2946,  9999,  7999, -22,  17452, -2628, -2395
  59170,  227,  305,  509,  658,  961,  9999,  9999,  11,  16949, -2948, -1305
  59251,  305,  278,  1237,  596,  600,  6499,  9999,  25,  14728, -396,  3938
  59332,  305,  289,  1822,  540,  547,  5499,  8999,  31,  1098,  2259,  1430
  59413,  305,  288,  1828,  471,  452,  6999,  8999,  35, -11436,  4646, -1667
  59494,  305,  305,  1645,  387,  438,  6999,  8999,  35, -15624,  4129, -3062
  59575,  305,  305,  1363,  337,  599,  6999,  8999,  25, -16498,  4057, -1703
  59656,  305,  305,  1129,  302,  2438,  7999,  9999,  15, -16906,  2985, -322
  59737,  305,  305,  675,  204,  2144,  7999,  9999,  15, -16652,  4570,  303
  59818,  305,  305,  443,  272,  1558,  9999,  9999, -1, -14607,  2633, -3789
  59899,  305,  275,  326,  390,  1285,  9999,  9999, -1, -11161,  330, -1427
  59980,  305,  305,  272,  530,  1067,  9999,  9999, -12, -3836, -1476,  467
  60061,  227,  305,  257,  840,  947,  9999,  9999, -8, -455, -194, -992
  60142,  220,  305,  262,  1635,  874,  9999,  9999,  3,  4712, -2062, -2655
  60223,  255,  305,  301,  1568,  846,  9999,  9999,  2,  6399, -3281, -2310
  60304,  305,  305,  355,  1343,  800,  9999,  9999,  6,  499,  1721,  852
  60385,  305,  305,  419,  2195,  699,  9999,  9999, -12, -1433,  1824, -839
  60466,  305,  305,  360,  2171,  563,  8999,  5499, -29, -3177,  3201, -2428
  60547,  305,  305,  293,  1980,  481,  8999,  6999, -35,  7661, -1891, -8176
  60628,  305,  305,  244,  1872,  506,  8999,  6999, -35,  14753, -2228, -1708
  60709,  305,  305,  225,  1950,  510,  8999,  6999, -35,  16209, -3521, -1394
  60790,  305,  305,  234,  1081,  760,  9999,  9999, -5,  16272, -1056, -1319
  60871,  305,  305,  272,  643,  1253,  9999,  9999, -6,  15001, -557,  1758
  60952,  305,  305,  288,  509,  1235,  9999,  9999, -4,  14304, -1568,  2784
  61033,  305,  305,  358,  410,  1211,  9999,  9999,  0,  5818,  264,  818
  61114,  305,  305,  430,  357,  1158,  9999,  9999,  3,  3020,  735,  174
  61195,  305,  287,  364,  317,  1080,  9999,  9999,  2,  747, -1010,  382
  61276,  305,  286,  413,  281,  991,  9999,  9999,  3, -900,  823,  537
  61357,  305,  286,  451,  249,  881,  9999,  9999,  5, -1731, -24, -767
  61438,  305,  298,  486,  331,  772,  9999,  9999,  3, -1111,  1100, -164
  61519,  305,  305,  507,  1151,  648,  9999,  6499, -19, -2247,  2206, -1289
  61600,  305,  305,  518,  1010,  545,  8999,  5499, -31, -327,  1211, -6007
  61681,  305,  305,  482,  924,  480,  8999,  6999, -35,  7768, -6126, -3969
  61762,  305,  305,  384,  876,  457,  8999,  6999, -35,  14475, -2566, -983
  61843,  305,  305,  312,  891,  475,  8999,  6999, -35,  16271, -6288, -5656
  61924,  305,  305,  271,  868,  656,  9999,  7999, -18,  16042, -3448, -1859
  62005,  305,  305,  258,  892,  552,  8999,  6999, -31,  17036, -4348, -4478
  62086,  305,  305,  287,  994,  499,  8999,  6999, -35,  16995, -4502, -2411
  62167,  305,  305,  451,  1163,  467,  8999,  6999, -35,  16853, -3897,  108
  62248,  305,  305,  410,  1942,  484,  8999,  6999, -35,  16887, -320, -107
  62329,  305,  305,  338,  4681,  478,  8999,  6999, -35,  16385, -635, -2206
  62410,  305,  305,  301,  3283,  528,  8999,  6999, -34,  17468, -2205, -4277
  62491,  305,  305,  295,  1225,  655,  9999,  7999, -18,  16926, -3027, -3599
  62572,  305,  305,  337,  995,  805,  9999,  9999,  0,  18324, -6607, -1388
  62653,  305,  305,  322,  748,  1885,  9999,  9999, -3,  15691, -1457,  1150
  62734,  305,  305,  370,  675,  3582,  9999,  9999,  1,  5379,  2475,  2531
  62815,  305,  305,  395,  644,  3495,  9999,  9999,  1,  1476,  2496,  1240
  62896,  305,  305,  404,  522,  3411,  9999,  9999,  1,  490, -94, -2332
  62977,  305,  305,  405,  481,  3301,  9999,  9999,  1,  124, -1090, -3407
  63058,  305,  305,  382,  466,  3208,  9999,  9999,  0, -145,  809, -586
  63139,  305,  305,  290,  452,  3089,  9999,  9999, -7,  157, -681, -1943
  63220,  305,  305,  300,  435,  2999,  9999,  9999, -4, -193, -3204, -2849
  63301,  305,  305,  317,  419,  2919,  9999,  9999, -3,  3035,  705,  460
  63382,  305,  305,  355,  390,  2851,  9999,  9999, -1,  2236, -2418,  1247
  63463,  305,  298,  403,  357,  2775,  9999,  9999,  3,  2200,  6, -2545
  63544,  305,  305,  452,  318,  2698,  9999,  9999,  3,  950, -179, -1912
  63625,  305,  298,  495,  289,  2609,  9999,  9999,  7, -694,  1155, -353
  63706,  305,  305,  507,  260,  2499,  9999,  9999,  5, -1548,  314, -2533
  63787,  305,  305,  492,  199,  2384,  9999,  9999,  9, -3112,  3534, -664
  63868,  305,  286,  468,  219,  2260,  9999,  9999,  4, -3936,  2116,  710
  63949,  305,  275,  438,  252,  2128,  9999,  9999,  4, -5418,  3856, -2035
  64030,  305,  203,  399,  306,  2015,  7999,  9999,  15, -4682,  117,  1558
  64111,  305,  241,  357,  371,  1800,  9999,  9999, -6, -6139,  2285, -1528
  64192,  305,  279,  307,  491,  1201,  9999,  9999, -8, -7062,  3366,  1662
  64273,  305,  305,  254,  875,  852,  9999,  9999, -8, -3519,  752, -3917
  64354,  272,  305,  217,  1984,  780,  9999,  9999, -2,  3304, -1111, -2597
  64435,  273,  305,  195,  2138,  847,  9999,  9999, -11,  4858, -1628,  85
  64516,  256,  305,  180,  2027,  946,  9999,  9999, -11,  2837, -578, -1367
  64597,  216,  305,  166,  1937,  1018,  9999,  9999, -12,  5443, -3872, -2102
  64678,  185,  305,  154,  1781,  1305,  9999,  9999, -11,  6805, -1066, -1597
  64759,  174,  305,  169,  1735,  1179,  9999,  9999, -7,  6330, -613, -813
  64840,  161,  305,  195,  1803,  1110,  9999,  9999, -3,  7578, -3806,  360
  64921,  165,  305,  236,  1580,  1038,  9999,  9999, -1,  5765, -77,  1939
  65003,  190,  305,  282,  1490,  964,  9999,  9999,  2,  3125, -1041, -3029
  65083,  231,  305,  319,  1429,  879,  9999,  9999,  6,  1484,  829, -1832
  65164,  273,  305,  350,  1403,  783,  9999,  9999, -2, -585,  133,  720
  65245,  305,  305,  361,  1221,  677,  9999,  7999, -15, -2693,  1581,  529
  65326,  305,  305,  360,  1087,  576,  8999,  5499, -28,  1304, -930, -815
  65407,  305,  305,  400,  988,  502,  8999,  6999, -35,  9939, -4735, -6098
  65488,  305,  305,  424,  992,  493,  8999,  6999, -35,  14689, -5204, -2801
  65569,  305,  305,  347,  1065,  518,  8999,  6999, -35,  15923, -6009, -4418
  65650,  305,  305,  305,  1126,  543,  8999,  6999, -32,  16555, -1156,  691
  65731,  305,  305,  294,  1318,  523,  8999,  6999, -34,  16194, -3047, -234
  65812,  305,  305,  309,  1612,  529,  8999,  6999, -33,  16689, -1963, -2241
  65893,  305,  305,  355,  1893,  587,  8999,  6999, -26,  16907, -2055, -2533
  65974,  305,  305,  342,  2237,  692,  9999,  9999, -13,  17157, -2158,  29
  66055,  305,  305,  337,  2086,  734,  9999,  9999, -8,  15947, -2071,  422
  66136,  305,  305,  357,  1367,  814,  9999,  9999,  0,  12170, -1418,  2889
  66217,  305,  305,  384,  1223,  869,  9999,  9999,  1,  6042,  953,  1375
  66298,  305,  305,  620,  1144,  855,  9999,  9999,  10,  1145,  1197, -2864
  66379,  305,  305,  371,  1101,  754,  9999,  9999, -5, -1042,  3883,  117
  66460,  305,  305,  314,  1084,  610,  9999,  6499, -23, -4486, -59, -1359
  66541,  305,  305,  254,  1090,  497,  8999,  5499, -35,  2591,  1704, -4298
  66622,  305,  305,  210,  1039,  514,  8999,  6999, -35,  13147, -7052, -3651
  66703,  305,  305,  201,  930,  886,  9999,  9999, -12,  17293, -2115,  1405
  66784,  305,  305,  227,  830,  1038,  9999,  9999, -8,  14949, -3486, -2059
  66865,  305,  305,  277,  756,  1506,  9999,  9999, -4,  13629, -911,  766
  66946,  305,  305,  438,  687,  1377,  9999,  9999,  5,  7103,  299,  1155
  67027,  305,  305,  508,  619,  1280,  9999,  9999,  4,  3118,  1326,  2693
  67108,  305,  305,  537,  540,  1185,  9999,  9999,  5, -2627,  2167, -979
  67189,  305,  305,  527,  455,  1092,  9999,  9999,  6, -2657, -184, -1549
  67270,  305,  305,  440,  364,  1005,  9999,  9999,  2, -2685,  3539, -1955
  67351,  305,  305,  393,  283,  910,  9999,  9999,  2, -3715, -2047, -995
  67432,  305,  305,  354,  204,  808,  9999,  9999,  2, -3066, -771,  533
  67513,  305,  305,  317,  971,  713,  9999,  9999, -10, -2596,  2306,  969
  67594,  305,  305,  278,  4455,  623,  9999,  6499, -22, -2898,  2041,  148
  67675,  305,  305,  244,  3256,  521,  8999,  6999, -34,  6652, -2268, -5657
  67756,  305,  305,  244,  4004,  427,  8999,  6999, -35,  14292, -4090, -5460
  67837,  305,  305,  293,  3940,  338,  7999,  5999, -35,  16330, -4178, -4525
  67918,  305,  305,  358,  2346,  276,  7999,  5999, -35,  16789, -1732, -1595
  67999,  305,  305,  254,  1092,  239,  7999,  5999, -35,  17029, -2096, -3121
  68080,  305,  305,  174,  883,  224,  7999,  5999, -35,  17202, -2691, -271
  68161,  305,  305,  124,  838,  2379,  9999,  7999, -24,  17108, -3393, -1459
  68242,  305,  305,  99,  729,  2907,  9999,  7999, -24,  16203, -1944,  338
  68329,  305,  305,  1589,  638,  1015,  6499,  9999,  32,  17231, -2079, -1022
  68410,  305,  277,  1173,  573,  634,  6499,  9999,  20,  12058,  1112, -2498
  68491,  305,  286,  1687,  517,  477,  5499,  8999,  35,  3781,  3356, -1139
  68572,  305,  298,  1771,  461,  417,  6999,  8999,  35, -8108,  3957, -1400
  68653,  305,  305,  1571,  397,  474,  6999,  8999,  35, -13321,  7012,  1623
  68734,  305,  305,  1326,  349,  649,  7999,  9999,  18, -15328,  3550, -1408
  68815,  305,  305,  1072,  297,  2431,  7999,  9999,  15, -17452,  4625,  1088
  68896,  305,  305,  623,  215,  2036,  9999,  9999,  14, -17228,  4485, -2782
  68977,  305,  298,  414,  291,  1518,  9999,  9999, -2, -12901,  1543,  3268
  69058,  305,  288,  322,  413,  1248,  9999,  9999, -4, -10110,  2919,  2033
  69139,  305,  305,  273,  543,  1048,  9999,  9999, -9, -3350, -2081,  691
  69220,  214,  305,  264,  834,  950,  9999,  9999, -11,  1519, -26, -2352
  69301,  228,  305,  286,  1081,  890,  9999,  9999,  5,  4509, -1124, -3488
  69382,  277,  305,  333,  1077,  870,  9999,  9999,  5,  7134, -2445,  732
  69463,  305,  305,  429,  995,  847,  9999,  9999,  5,  933,  1364, -952
  69544,  305,  305,  417,  1614,  709,  9999,  9999, -11, -2577,  2405, -547
  69625,  305,  305,  352,  2083,  575,  8999,  5499, -28, -4214, -609,  640
  69706,  305,  305,  288,  1952,  488,  6499,  2999, -35,  5413, -8729, -9822
  69787,  305,  305,  243,  1811,  485,  8999,  6999, -35,  16914,  1446, -6618
  69868,  305,  305,  238,  1775,  620,  9999,  7999, -22,  18021, -3470, -1281
  69949,  305,  305,  265,  743,  897,  9999,  9999, -9,  17728, -4217,  100
  70030,  305,  305,  311,  534,  1264,  9999,  9999, -2,  15741, -2595,  3158
  70111,  305,  305,  343,  428,  1252,  9999,  9999,  0,  9464,  1263,  2835
  70192,  305,  305,  423,  365,  1207,  9999,  9999,  3,  3897,  2186,  2764
  70273,  305,  286,  428,  320,  1134,  9999,  9999,  6,  477, -246, -456
  70354,  305,  289,  385,  288,  1038,  9999,  9999,  0, -1862,  674, -1904
  70435,  305,  275,  416,  263,  925,  9999,  9999,  6, -2647,  326, -1046
  70516,  305,  289,  427,  247,  810,  9999,  9999,  3, -2905, -835, -936
  70597,  305,  305,  433,  993,  686,  9999,  9999, -14, -1943,  2020, -297
  70678,  305,  305,  436,  1038,  576,  8999,  5499, -28, -3355, -2402, -2685
  70759,  305,  305,  439,  961,  488,  8999,  6999, -35,  6636, -1348, -6574
  70841,  305,  305,  440,  898,  448,  8999,  6999, -35,  14671, -5378, -2488
  70921,  305,  305,  343,  866,  443,  8999,  6999, -35,  15824, -4488, -2862
  71002,  305,  305,  283,  905,  636,  9999,  7999, -20,  16800, -3412, -3708
  71083,  305,  305,  254,  869,  613,  9999,  7999, -23,  17684, -3816,  2527
  71164,  305,  305,  251,  934,  538,  8999,  6999, -32,  16754, -5205,  129
  71245,  305,  305,  327,  1088,  494,  8999,  6999, -35,  16189, -651, -1673
  71326,  305,  305,  447,  1264,  475,  8999,  6999, -35,  16689, -3821, -2962
  71407,  305,  305,  373,  2559,  598,  8999,  6999, -25,  16546, -973, -2238
  71488,  305,  305,  317,  6382,  486,  8999,  6999, -35,  17196, -4898, -1098
  71569,  305,  305,  291,  2039,  560,  8999,  6999, -30,  16832, -1873, -2116
  71650,  305,  305,  335,  1233,  742,  9999,  9999, -7,  17843, -2592, -1378
  71731,  305,  305,  300,  874,  981,  9999,  9999, -6,  17814, -4077, -129
  71812,  305,  305,  340,  739,  2475,  9999,  9999,  0,  12893,  5327,  1203
  71893,  305,  305,  385,  612,  3555,  9999,  9999,  0,  5156,  1711, -2189
  71974,  305,  305,  410,  615,  3510,  9999,  9999,  2,  1110, -1625,  2435
  72055,  305,  305,  418,  505,  3393,  9999,  9999,  1,  72,  929,  108
  72136,  305,  305,  422,  462,  3292,  9999,  9999,  2, -681,  2905, -485
  72217,  305,  305,  353,  447,  3178,  9999,  9999, -2, -318, -2, -2783
  72298,  305,  305,  302,  434,  3071,  9999,  9999, -5, -888,  245, -3426
  72379,  305,  305,  314,  423,  2975,  9999,  9999, -3, -756,  1573, -1156
  72460,  305,  305,  329,  407,  2891,  9999,  9999, -2,  1956,  971, -1608
  72541,  305,  305,  360,  382,  2810,  9999,  9999,  0,  1200,  1450,  1181
  72622,  305,  298,  396,  356,  2729,  9999,  9999,  1,  2228,  1621,  1011
  72703,  305,  305,  437,  327,  2643,  9999,  9999,  2,  1362, -2520, -4281
  72784,  305,  305,  470,  297,  2557,  9999,  9999,  4,  444,  641, -238
  72865,  305,  305,  489,  237,  2464,  9999,  9999,  6, -100, -1939,  28
  72946,  305,  305,  487,  208,  2360,  9999,  9999,  7, -1680,  1089,  426
  73027,  305,  288,  474,  218,  2233,  9999,  9999,  6, -3192,  2123, -2053
  73108,  305,  257,  453,  243,  2117,  9999,  9999,  7, -4901,  288,  1106
  73189,  305,  197,  419,  281,  2004,  9999,  9999,  14, -3909,  3842,  595
  73270,  305,  218,  384,  331,  1893,  9999,  9999, -1, -5748,  4554,  1110
  73351,  305,  257,  337,  406,  1587,  9999,  9999, -5, -8091,  2504, -3535
  73432,  305,  305,  286,  676,  1104,  9999,  9999, -11, -3484, -1683, -4246
  73513,  269,  305,  247,  1014,  982,  9999,  9999, -7,  1982, -1711, -1432
  73594,  305,  305,  228,  1609,  1085,  9999,  9999, -3,  6286, -2340, -726
  73675,  272,  305,  222,  1408,  1402,  9999,  9999, -12,  5776, -1322, -537
  73756,  270,  305,  218,  1306,  1321,  9999,  9999, -6,  3361,  1512, -1636
  73837,  251,  305,  223,  1971,  1237,  9999,  9999, -5,  6014, -2465, -1646
  73918,  277,  305,  243,  1861,  1162,  9999,  9999, -3,  5188, -892,  1079
  73999,  235,  305,  274,  1568,  1079,  9999,  9999, -5,  4913, -1849, -1795
  74080,  255,  305,  306,  1500,  1002,  9999,  9999,  3,  3469, -1864, -123
  74161,  305,  305,  339,  1428,  917,  9999,  9999,  5,  2315,  129, -554
  74242,  305,  305,  369,  1451,  824,  9999,  9999,  0, -171,  3402, -1493
  74323,  305,  305,  370,  1217,  717,  9999,  9999, -10, -2939,  1619,  79
  74404,  305,  305,  363,  1078,  608,  9999,  6499, -24, -1794, -1411, -249
  74485,  305,  305,  369,  965,  511,  8999,  6999, -35,  9104, -3608, -4364
  74566,  305,  305,  431,  915,  474,  8999,  6999, -35,  13604, -1385, -5415
  74647,  305,  305,  373,  941,  467,  8999,  6999, -35,  15000, -1872, -1538
  74728,  305,  305,  307,  1024,  508,  8999,  6999, -35,  16326, -3120, -3745
  74809,  305,  305,  274,  1068,  499,  8999,  6999, -35,  16575, -2622, -4003
  74890,  305,  305,  268,  1185,  479,  8999,  6999, -35,  16113, -2609,  617
  74971,  305,  305,  289,  1475,  488,  8999,  6999, -35,  16900, -656,  68
  75052,  305,  305,  323,  1909,  542,  8999,  6999, -32,  16157, -2646, -15
  75133,  305,  305,  295,  2264,  644,  9999,  7999, -19,  16460, -3165, -472
  75214,  305,  305,  295,  2138,  697,  9999,  9999, -12,  17245, -3710,  2562
  75295,  305,  305,  326,  1343,  813,  9999,  9999, -2,  14718, -2245, -2687
  75376,  305,  305,  376,  1192,  946,  9999,  9999,  2,  9033, -1731,  660
  75457,  305,  305,  452,  1105,  1168,  9999,  9999,  5,  3290,  499,  963
  75538,  305,  305,  368,  1051,  1101,  9999,  9999, -1, -1186,  1897,  225
  75619,  305,  305,  325,  1013,  964,  9999,  9999, -1, -2682, -166, -862
  75700,  305,  305,  277,  990,  829,  9999,  9999, -6, -1445,  2114, -2457
  75781,  305,  305,  229,  959,  715,  9999,  9999, -10, -921,  321, -3535
  75862,  305,  305,  184,  925,  627,  9999,  6499, -21,  1880,  325, -367
  75943,  305,  305,  144,  868,  600,  9999,  7999, -25,  8613, -5393, -2783
  76024,  213,  305,  128,  787,  708,  9999,  9999, -11,  13195, -1834, -2092
  76105,  169,  305,  141,  702,  767,  9999,  9999, -4,  12733, -1245,  653
  76186,  162,  305,  265,  627,  1055,  9999,  9999,  1,  9839, -2204, -1294
  76267,  170,  305,  298,  549,  1164,  9999,  9999, -1,  5070,  449, -901
  76348,  305,  305,  314,  479,  1067,  9999,  9999,  13,  120, -26, -2209
  76429,  305,  305,  313,  404,  970,  9999,  9999, -8, -863,  3380,  1789
  76510,  305,  305,  226,  643,  869,  9999,  9999, -12, -6278,  1384, -807
  76591,  305,  305,  173,  4960,  687,  9999,  9999, -14, -2742, -3212, -4852
  76672,  305,  305,  136,  5299,  638,  9999,  6499, -20,  4509, -785, -1519
  76753,  259,  305,  123,  4480,  567,  8999,  6999, -29,  13206, -6875, -4724
  76834,  148,  305,  143,  4641,  473,  8999,  6999, -35,  13897, -1345, -4686
  76915,  154,  305,  205,  3655,  403,  8999,  6999, -35,  16374, -3465, -3780
  76996,  203,  305,  320,  1461,  359,  7999,  5999, -35,  16821, -4583, -148
  77078,  305,  305,  305,  1059,  336,  7999,  5999, -35,  16778, -3175, -2775
  77158,  305,  305,  231,  978,  356,  7999,  5999, -35,  17125, -2226, -5723
  77239,  305,  305,  193,  850,  3063,  9999,  9999, -14,  16992, -1927,  719
  77320,  305,  305,  178,  753,  2575,  9999,  7999, -15,  16091,  1122, -208
  77401,  305,  305,  319,  686,  941,  9999,  9999,  5,  15392, -5658, -701
  77482,  305,  305,  1210,  622,  662,  6499,  9999,  17,  12093, -3090,  297
  77563,  305,  214,  1863,  561,  601,  6499,  9999,  24, -2125,  2765, -3858
  77644,  305,  287,  1814,  486,  492,  6999,  8999,  35, -12077,  4783,  942
  77725,  305,  305,  1543,  414,  523,  6999,  8999,  34, -16420,  2220, -1150
  77806,  305,  305,  1291,  367,  790,  9999,  9999,  1, -17173,  1880, -1709
  77887,  305,  305,  741,  345,  2510,  9999,  9999,  13, -14702, -2762, -927
  77968,  305,  305,  456,  250,  1848,  9999,  9999,  5, -13015,  4017,  593
  78049,  305,  305,  347,  308,  1518,  9999,  9999, -5, -10697,  5223, -1004
  78130,  305,  287,  293,  407,  1327,  9999,  9999, -3, -6849,  1280,  3157
  78211,  305,  305,  278,  492,  1185,  9999,  9999, -8, -12, -2170, -2791
  78292,  203,  305,  299,  523,  1112,  9999,  9999, -12,  1799,  66, -1752
  78373,  237,  305,  336,  563,  1058,  9999,  9999,  8,  4461, -3623, -1824
  78454,  305,  305,  404,  622,  995,  9999,  9999,  10,  7025, -4412, -1325
  78535,  305,  305,  520,  616,  931,  9999,  9999,  4,  7,  1312, -150
  78616,  305,  305,  477,  760,  786,  9999,  9999, -1, -6194,  2014,  1353
  78697,  305,  305,  412,  1604,  698,  9999,  9999, -12, -5698,  732, -1681
  78778,  305,  305,  345,  1949,  562,  8999,  5499, -29, -1264, -664, -1611
  78859,  305,  305,  283,  1821,  495,  8999,  6999, -35,  8865, -3655, -5942
  78940,  305,  305,  242,  1749,  441,  8999,  6999, -35,  14729, -3506, -3318
  79021,  305,  305,  229,  1843,  585,  8999,  6999, -26,  16681, -1758, -2341
  79102,  305,  305,  246,  968,  742,  9999,  9999, -7,  16241, -2532, -3216
  79183,  305,  305,  259,  580,  1169,  9999,  9999, -9,  16487, -2719, -4
  79264,  305,  305,  301,  462,  1149,  9999,  9999, -2,  9145, -1486,  1276
  79345,  305,  305,  382,  385,  1112,  9999,  9999,  1,  5861,  1007,  1010
  79426,  305,  305,  348,  336,  1048,  9999,  9999, -1,  2651, -615, -1811
  79507,  305,  287,  395,  293,  965,  9999,  9999,  6,  448,  1120,  808
  79588,  305,  288,  453,  256,  868,  9999,  9999,  4, -567,  396, -3001
  79668,  305,  305,  496,  451,  758,  9999,  9999,  5, -2847,  1092, -151
  79749,  305,  305,  509,  1146,  641,  9999,  6499, -19, -3282,  1675, -159
  79830,  305,  305,  512,  1006,  534,  8999,  5499, -33, -1749, -5255, -4197
  79911,  305,  305,  467,  919,  456,  8999,  6999, -35,  7664,  2844, -4104
  79992,  305,  305,  368,  864,  428,  8999,  6999, -35,  13992, -4953, -403
  80073,  305,  305,  295,  847,  441,  8999,  6999, -35,  15764, -3485, -772
  80155,  305,  305,  253,  884,  647,  9999,  7999, -19,  17303, -3439, -2295
  80235,  305,  305,  240,  881,  556,  8999,  6999, -30,  16860, -2143,  4450
  80316,  305,  305,  253,  984,  503,  8999,  6999, -35,  16695, -1852, -2005
  80397,  305,  305,  424,  1167,  482,  8999,  6999, -35,  16922, -1639, -597
  80478,  305,  305,  410,  1796,  478,  8999,  6999, -35,  17085, -4003,  199
  80559,  305,  305,  337,  4446,  479,  8999,  6999, -35,  17072, -2988, -3001
  80640,  305,  305,  299,  4401,  520,  8999,  6999, -35,  16435, -2831, -1884
  80722,  305,  305,  289,  1245,  629,  9999,  7999, -21,  17023, -3357, -3564
  80802,  305,  305,  342,  1033,  854,  9999,  9999,  2,  17084, -3015, -2509
  80883,  305,  305,  314,  778,  1614,  9999,  9999, -5,  15818, -720, -271
  80964,  305,  305,  364,  684,  3611,  9999,  9999,  1,  7766,  1871,  4730
  81045,  305,  305,  401,  593,  3648,  9999,  9999,  1,  3035, -3701,  1344
  81126,  305,  305,  417,  595,  3445,  9999,  9999,  2,  349,  721, -1712
  81207,  305,  305,  419,  474,  3341,  9999,  9999,  1, -703, -1641, -289
  81289,  305,  305,  409,  458,  3231,  9999,  9999,  1, -1016,  512, -2379
  81369,  305,  305,  311,  447,  3136,  9999,  9999, -5, -469,  122, -1764
  81450,  305,  305,  301,  437,  3016,  9999,  9999, -4, -882,  318,  2836
  81531,  305,  305,  313,  423,  2929,  9999,  9999, -3,  1842,  452, -4184
  81612,  305,  305,  339,  399,  2856,  9999,  9999, -2,  2432, -1973, -2251
  81693,  305,  305,  378,  371,  2783,  9999,  9999,  0,  2344,  298,  2588
  81774,  305,  297,  419,  340,  2711,  9999,  9999,  4,  2256, -1658, -2413
  81856,  305,  305,  466,  304,  2612,  9999,  9999,  3,  727,  1963, -2652
  81936,  305,  305,  501,  277,  2516,  9999,  9999,  5, -1354,  1238, -1867
  82017,  305,  305,  493,  209,  2411,  9999,  9999,  9, -1914,  1685,  1316
  82098,  305,  298,  479,  213,  2293,  9999,  9999,  4, -2902,  4453,  622
  82179,  305,  275,  452,  239,  2170,  9999,  9999,  5, -5621, -617, -4179
  82260,  305,  200,  418,  284,  2053,  6499,  9999,  16, -5221,  2446, -135
  82341,  305,  219,  376,  346,  1970,  9999,  9999, -2, -7824,  2949, -3682
  82423,  305,  268,  322,  457,  1204,  9999,  9999, -9, -7517,  5728, -2354
  82503,  305,  305,  264,  841,  815,  9999,  9999, -8, -5394, -10, -694
  82584,  269,  305,  221,  1986,  710,  9999,  9999, -11,  2801, -1111, -1866
  82665,  305,  305,  195,  2101,  741,  9999,  9999, -7,  4820, -2410, -2146
  82746,  272,  305,  181,  2049,  874,  9999,  9999, -14,  6428, -4149, -2542
  82827,  224,  305,  175,  1981,  1112,  9999,  9999, -12,  6609,  1542,  457
  82908,  193,  305,  172,  1805,  1297,  9999,  9999, -10,  7239, -958, -51
  82990,  185,  305,  191,  1894,  1226,  9999,  9999, -3,  8813, -2854, -3361
  83070,  183,  305,  231,  1333,  1172,  9999,  9999, -4,  8037, -3946, -1184
  83151,  206,  305,  281,  1154,  1108,  9999,  9999,  1,  4199, -188,  375
  83232,  236,  305,  328,  1568,  1034,  9999,  9999,  7,  3211, -1129,  1330
  83313,  270,  305,  374,  1474,  953,  9999,  9999,  5, -163, -243, -1369
  83394,  291,  305,  394,  1361,  832,  9999,  9999,  4, -4050,  1263, -1009
  83475,  305,  305,  384,  1255,  715,  9999,  9999, -10, -3707,  719,  35
  83557,  305,  305,  364,  1090,  604,  9999,  6499, -24, -3999,  2605, -808
  83637,  305,  305,  358,  964,  511,  8999,  5499, -35,  5955, -2072, -3448
  83718,  305,  305,  421,  907,  476,  8999,  6999, -35,  16537, -4045, -5714
  83799,  305,  305,  378,  973,  485,  8999,  6999, -35,  17401, -3023,  2260
  83880,  305,  305,  319,  1060,  550,  8999,  6999, -31,  17609, -2501, -3577
  83961,  305,  305,  294,  1151,  518,  8999,  6999, -35,  16573, -4381, -924
  84042,  305,  305,  296,  1316,  510,  8999,  6999, -35,  16194, -4463, -3177
  84125,  305,  305,  330,  1741,  533,  8999,  6999, -33,  16596, -3035, -2853
  84206,  305,  305,  343,  2037,  609,  9999,  7999, -23,  16998,  243, -2982
  84287,  305,  305,  325,  2331,  687,  9999,  9999, -14,  16675, -3990,  1296
  84368,  305,  305,  334,  1703,  764,  9999,  9999, -4,  15530, -2600,  2193
  84449,  305,  305,  365,  1283,  850,  9999,  9999,  0,  10381,  2217,  1446
  84530,  305,  305,  455,  1157,  914,  9999,  9999,  5,  4950, -2930, -566
  84611,  305,  305,  441,  1096,  1035,  9999,  9999,  4,  721, -119, -482
  84692,  305,  305,  350,  1058,  939,  9999,  9999, -1, -2493, -76,  657
  84773,  305,  305,  298,  1039,  632,  9999,  6499, -21, -2940,  1480,  764
  84854,  305,  305,  244,  1023,  528,  8999,  5499, -34,  2282, -5734, -6972
  84935,  305,  305,  206,  972,  691,  9999,  9999, -13,  12076, -5961, -3312
  85016,  305,  305,  198,  881,  894,  9999,  9999, -12,  13047, -2907,  4338
  85096,  305,  305,  212,  789,  939,  9999,  9999, -10,  11687, -767,  1301
  85177,  305,  305,  238,  708,  1150,  9999,  9999, -8,  8951, -2347, -2647
  85259,  305,  305,  368,  635,  1329,  9999,  9999,  3,  8932, -2633,  2053
  85339,  305,  305,  414,  564,  1212,  9999,  9999,  2,  7047,  172,  1515
  85420,  305,  305,  450,  494,  1108,  9999,  9999,  3,  303,  1939, -366
  85501,  305,  305,  430,  407,  1016,  9999,  9999,  2, -1948,  2166,  1209
  85582,  305,  305,  357,  324,  923,  9999,  9999, -1, -1042,  387,  115
  85663,  305,  305,  333,  241,  823,  9999,  9999,  0, -1791,  3354, -242
  85744,  305,  305,  308,  751,  714,  9999,  9999, -10, -1582,  2217, -2757
  85826,  305,  305,  282,  6989,  617,  9999,  6499, -22,  362, -1666, -723
  85906,  305,  305,  263,  6136,  520,  8999,  6999, -35,  6935, -3837, -8057
  85987,  305,  305,  288,  4029,  431,  8999,  6999, -35,  13719, -1093, -3621
  86068,  305,  305,  363,  2939,  367,  7999,  5999, -35,  15397, -3706, -2310
  86149,  305,  305,  377,  1206,  327,  7999,  5999, -35,  16513, -4513, -2973
  86230,  305,  305,  264,  924,  301,  7999,  5999, -35,  15904, -3966, -2360
  86311,  305,  305,  199,  872,  2154,  9999,  7999, -15,  16674,  532, -993
  86393,  305,  305,  161,  755,  2975,  9999,  7999, -19,  16570, -4815,  2949
  86473,  305,  305,  196,  661,  1961,  9999,  9999, -10,  15269,  951,  3880
  86554,  305,  267,  1301,  578,  826,  6499,  9999,  30,  13705,  845,  1689
  86635,  305,  276,  1467,  515,  574,  5499,  8999,  28,  5815, -1561, -2707
  86716,  305,  305,  1580,  457,  474,  5499,  8999,  35, -4811,  2603,  483
  86797,  305,  305,  1495,  398,  507,  6999,  8999,  35, -13294,  7587,  242
  86878,  305,  305,  1290,  353,  756,  9999,  9999,  5, -16024,  6288, -239
  86960,  305,  305,  891,  318,  2460,  9999,  9999,  14, -15374, -322, -2566
  87040,  305,  305,  529,  229,  1944,  9999,  9999,  10, -13519,  2106, -3102
  87121,  305,  305,  397,  292,  1559,  9999,  9999, -4, -11709,  5541,  161
  87202,  305,  305,  326,  395,  1306,  9999,  9999, -4, -8487, -164, -1440
  87283,  305,  305,  295,  494,  1132,  9999,  9999, -4, -1596, -1962,  722
  87364,  214,  297,  300,  557,  1043,  9999,  9999, -10,  984, -691,  1437
  87445,  255,  305,  328,  727,  977,  9999,  9999,  8,  2395, -2592, -4153
  87526,  305,  305,  373,  852,  933,  9999,  9999,  7,  4535,  2420, -1592
  87606,  305,  305,  462,  877,  894,  9999,  9999,  4,  324,  2522,  1097
  87687,  305,  305,  439,  1427,  732,  9999,  9999, -8, -4113,  4897, -477
  87768,  305,  305,  374,  2073,  583,  8999,  5499, -27, -4589, -4092, -1108
  87849,  305,  305,  308,  1914,  500,  6499,  2999, -35,  6305, -9909, -5291
  87930,  305,  305,  260,  1827,  498,  8999,  6999, -35,  16433,  2090, -3801
  88011,  305,  305,  250,  1907,  591,  8999,  6999, -26,  15829, -4759, -1218
  88092,  305,  305,  269,  812,  694,  9999,  9999, -13,  16801, -2033,  1259
  88173,  305,  305,  317,  570,  1259,  9999,  9999, -1,  15425, -3122,  348
  88254,  305,  305,  323,  455,  1235,  9999,  9999, -3,  11505,  1311, -752
  88336,  305,  305,  399,  379,  1196,  9999,  9999,  2,  4009, -1023, -496
  88416,  305,  286,  441,  335,  1121,  9999,  9999,  6,  2033, -2188,  739
  88497,  305,  277,  370,  300,  1041,  9999,  9999,  1, -1083,  2097, -431
  88578,  305,  288,  400,  273,  933,  9999,  9999,  2, -2908, -1592, -4891
  88659,  305,  287,  407,  257,  799,  9999,  9999,  0, -2844, -2260, -4475
  88740,  305,  305,  414,  1029,  689,  9999,  9999, -13, -2677,  988,  1533
  88821,  305,  305,  414,  1053,  584,  8999,  5499, -27, -2391,  3287, -374
  88902,  305,  305,  432,  975,  502,  8999,  6999, -35,  8478, -6594, -6133
  88983,  305,  305,  448,  919,  470,  8999,  6999, -35,  15158, -1361, -2113
  89064,  305,  305,  359,  888,  473,  8999,  6999, -35,  15705, -2177, -1489
  89145,  305,  305,  303,  933,  715,  9999,  9999, -10,  15567, -4096, -4303
  89226,  305,  305,  276,  900,  629,  9999,  7999, -21,  14080, -6985, -728
  89307,  305,  305,  268,  938,  549,  8999,  6999, -31,  13792, -3936, -3014
  89388,  305,  305,  320,  1026,  497,  8999,  6999, -35,  15709, -3454, -1085
  89469,  305,  305,  452,  1162,  469,  8999,  6999, -35,  16298, -1760, -739
  89550,  305,  305,  386,  1927,  465,  8999,  6999, -35,  15297, -1860, -3573
  89631,  305,  305,  320,  4357,  458,  8999,  6999, -35,  17345,  435, -2221
  89712,  305,  305,  283,  3436,  503,  8999,  6999, -35,  16863, -1212, -337
  89793,  305,  305,  285,  1407,  620,  9999,  7999, -22,  16935, -3796, -2692
  89874,  305,  305,  313,  1026,  798,  9999,  9999,  0,  16979, -4011,  2270
  89955,  305,  305,  302,  764,  1758,  9999,  9999, -5,  16375, -124,  1730
  90036,  305,  305,  354,  699,  3608,  9999,  9999,  1,  6743,  945,  1788
  90117,  305,  305,  389,  653,  3506,  9999,  9999,  1,  2709,  196, -2462
  90198,  305,  305,  405,  547,  3414,  9999,  9999,  1,  857,  3305,  2506
  90279,  305,  305,  412,  477,  3318,  9999,  9999,  2, -722, -591,  314
  90360,  305,  305,  372,  460,  3215,  9999,  9999,  0, -691, -1173, -1455
  90441,  305,  305,  296,  443,  3110,  9999,  9999, -5, -403,  1373, -53
  90522,  305,  305,  314,  427,  3009,  9999,  9999, -3, -205,  704, -2049
  90603,  305,  305,  332,  407,  2931,  9999,  9999, -2,  1294,  460,  2657
  90684,  305,  305,  365,  383,  2838,  9999,  9999,  0,  2633, -862, -2372
  90765,  305,  298,  408,  353,  2764,  9999,  9999,  3,  1927,  633, -2301
  90846,  305,  305,  453,  318,  2695,  9999,  9999,  3,  275,  2985,  3481
  90927,  305,  305,  491,  288,  2591,  9999,  9999,  4, -1281,  3261,  1153
  91008,  305,  305,  504,  254,  2487,  9999,  9999,  6, -1751,  695,  1180
  91089,  305,  305,  486,  204,  2375,  9999,  9999,  7, -2031,  1343, -2552
  91170,  305,  288,  474,  217,  2248,  9999,  9999,  6, -3841,  1905, -999
  91251,  305,  266,  449,  245,  2136,  9999,  9999,  6, -4481,  2878,  47
  91332,  305,  196,  418,  286,  2020,  7999,  9999,  15, -4500,  1669, -1030
  91413,  305,  222,  378,  340,  1937,  9999,  9999, -3, -8141,  3262, -2044
  91494,  305,  259,  327,  454,  1318,  9999,  9999, -6, -8563,  4340,  2757
  91575,  305,  305,  271,  820,  900,  9999,  9999, -11, -4132, -1393,  675
  91656,  275,  305,  229,  1877,  789,  9999,  9999, -1,  2735, -578, -1013
  91737,  273,  305,  206,  2070,  860,  9999,  9999, -8,  5867, -2580, -15
  91818,  274,  305,  195,  2058,  1013,  9999,  9999, -9,  2693,  950, -1217
  91899,  240,  305,  181,  1906,  1040,  9999,  9999, -13,  3783, -1822, -2459
  91980,  200,  305,  165,  1787,  1263,  9999,  9999, -11,  5598, -2784, -1144
  92061,  185,  305,  173,  1678,  1178,  9999,  9999, -7,  6129, -3375,  1028
  92142,  169,  305,  196,  1637,  1097,  9999,  9999, -4,  7624, -1935, -753
  92223,  176,  305,  236,  1658,  1035,  9999,  9999,  0,  6754, -1064, -1087
  92303,  193,  305,  286,  1485,  964,  9999,  9999,  0,  3259, -794, -2396
  92384,  229,  305,  327,  1429,  878,  9999,  9999,  5,  1565, -162,  4980
  92465,  271,  305,  358,  1380,  789,  9999,  9999, -1, -338, -1533, -181
  92547,  305,  305,  377,  1222,  676,  9999,  7999, -15, -1774,  2519, -3538
  92627,  305,  305,  388,  1096,  575,  8999,  5499, -28,  228,  3042, -3282
  92708,  290,  305,  420,  998,  510,  8999,  6999, -35,  9518, -2589, -3460
  92789,  305,  305,  431,  993,  497,  8999,  6999, -35,  14449, -3735, -2920
  92870,  305,  305,  352,  1062,  525,  8999,  6999, -34,  15560, -4681, -5384
  92951,  305,  305,  311,  1098,  542,  8999,  6999, -32,  15749, -3956, -1945
  93032,  305,  305,  298,  1185,  518,  8999,  6999, -35,  15903, -3650, -2224
  93114,  305,  305,  311,  1505,  520,  8999,  6999, -35,  16089, -4084, -1317
  93194,  305,  305,  355,  1843,  563,  8999,  6999, -29,  16578,  11,  384
  93275,  305,  305,  337,  2225,  687,  9999,  9999, -14,  16343, -2978, -2640
  93356,  305,  305,  329,  2213,  708,  9999,  9999, -11,  15607, -2147,  2560
  93437,  305,  305,  344,  1399,  775,  9999,  9999, -3,  12300,  2073,  942
  93518,  305,  305,  371,  1246,  837,  9999,  9999,  2,  7825, -153, -1228
  93599,  305,  305,  581,  1153,  854,  9999,  9999,  9,  4310,  1425,  2740
  93681,  305,  305,  370,  1096,  793,  9999,  9999,  0, -1657,  420,  1828
  93761,  305,  305,  318,  1073,  652,  9999,  6499, -18, -4596,  1997, -374
  93842,  305,  305,  259,  1070,  523,  8999,  5499, -34,  1556, -5769, -6425
  93923,  305,  305,  217,  1033,  526,  8999,  6999, -34,  11764, -720, -3723
  94004,  305,  305,  206,  930,  859,  9999,  9999, -11,  15357, -2843, -2842
  94085,  305,  305,  224,  831,  1038,  9999,  9999, -9,  14869, -2278, -17
  94166,  305,  305,  269,  754,  1479,  9999,  9999, -5,  13360, -538, -2539
  94248,  305,  305,  417,  690,  1389,  9999,  9999,  5,  6554, -547,  2095
  94328,  305,  305,  491,  616,  1285,  9999,  9999,  4,  4768,  542, -432
  94409,  305,  305,  527,  538,  1186,  9999,  9999,  5, -1606,  3307,  2157
  94490,  305,  305,  525,  456,  1097,  9999,  9999,  6, -2414, -653, -226
  94571,  305,  305,  439,  374,  998,  9999,  9999,  2, -3021, -1241, -3180
  94652,  305,  305,  390,  285,  903,  9999,  9999,  2, -4329,  1285, -488
  94733,  305,  305,  351,  207,  813,  9999,  9999,  2, -3228,  1578, -549
  94815,  305,  305,  314,  1058,  721,  9999,  9999, -9, -3047,  14, -767
  94895,  305,  305,  274,  3748,  629,  9999,  6499, -21, -3233, -2924,  1065
  94976,  305,  305,  241,  3124,  530,  6499,  2999, -33,  6199, -8470, -5064
  95057,  305,  305,  242,  3537,  422,  8999,  6999, -35,  15659,  5333, -8191
  95138,  305,  305,  296,  3831,  355,  7999,  5999, -35,  16713, -1361,  370
  95219,  305,  305,  375,  1925,  303,  7999,  5999, -35,  16848, -4197, -1385
  95300,  305,  305,  280,  1047,  282,  7999,  5999, -35,  16894,  465, -1846
  95381,  305,  305,  203,  906,  270,  7999,  5999, -35,  16782, -4647, -5530
  95462,  305,  305,  156,  818,  2410,  9999,  7999, -19,  16622, -1849, -1389
  95543,  305,  305,  134,  711,  2941,  9999,  7999, -21,  16753, -3242, -698
  95626,  305,  305,  683,  628,  937,  6499,  9999,  25,  16241,  55,  1360
  95707,  305,  268,  1283,  563,  600,  6499,  9999,  25,  10929,  462, -1898
  95788,  305,  287,  1729,  510,  509,  5499,  8999,  35,  2265,  6022,  539
  95869,  305,  305,  1796,  455,  429,  6999,  8999,  35, -8755,  4348,  59
  95950,  305,  305,  1605,  384,  448,  6999,  8999,  35, -14244,  7461,  539
  96030,  305,  305,  1358,  340,  610,  7999,  9999,  23, -16861,  5165, -1682
  96111,  305,  305,  1114,  309,  2451,  7999,  9999,  15, -16171,  1733, -2215
  96192,  305,  305,  667,  209,  2151,  7999,  9999,  15, -17260,  3102, -683
  96273,  305,  298,  441,  271,  1562,  9999,  9999, -2, -15230,  4315, -2489
  96354,  305,  275,  321,  395,  1271,  9999,  9999, -2, -11362,  439, -2532
  96435,  305,  305,  260,  543,  1046,  9999,  9999, -13, -3077, -1510, -390
  96517,  216,  305,  245,  946,  942,  9999,  9999, -9,  1159, -2678, -75
  96597,  206,  305,  257,  1667,  881,  9999,  9999,  3,  5758, -2917, -1435
  96678,  240,  305,  304,  1222,  871,  9999,  9999,  1,  7013,  390,  1676
  96759,  305,  305,  364,  1094,  827,  9999,  9999,  9,  811,  1009,  60
  96840,  305,  305,  430,  1892,  730,  9999,  9999, -8, -714, -415, -752
  96921,  305,  305,  372,  2118,  611,  9999,  6499, -23, -3987,  1975,  1241
  97002,  305,  305,  305,  2018,  488,  8999,  5499, -35,  4202,  3339, -1429
  97084,  305,  305,  251,  1840,  492,  8999,  6999, -35,  15159, -6146, -1931
  97164,  305,  305,  230,  1920,  505,  8999,  6999, -35,  16208, -3018, -481
  97245,  305,  305,  238,  1125,  802,  9999,  9999, -9,  16600, -4946, -2815
  97326,  305,  305,  276,  652,  1256,  9999,  9999, -7,  14794, -5204, -2222
  97407,  305,  305,  286,  520,  1221,  9999,  9999, -5,  12578,  611,  272
  97488,  305,  305,  335,  430,  1183,  9999,  9999, -1,  6206, -124, -318
  97569,  305,  305,  405,  374,  1135,  9999,  9999,  2,  4555, -1400,  247
  97651,  305,  298,  363,  328,  1071,  9999,  9999,  0,  1799, -343, -1752
  97731,  305,  286,  413,  288,  990,  9999,  9999,  5,  894,  914, -3329
  97812,  305,  289,  475,  248,  892,  9999,  9999,  5,  377,  2071,  534
  97893,  305,  305,  523,  229,  784,  9999,  9999,  2, -1880,  1471, -415
  97974,  305,  305,  543,  1133,  660,  9999,  6499, -17, -3371,  2899,  601
  98055,  305,  305,  554,  1012,  554,  8999,  5499, -30,  188,  65, -4239
  98136,  305,  305,  471,  928,  494,  8999,  6999, -35,  11625, -8078, -5279
  98218,  305,  305,  382,  888,  488,  8999,  6999, -35,  15237, -2628, -2160
  98298,  305,  305,  321,  923,  694,  9999,  9999, -13,  15165, -3428, -3008
  98379,  305,  305,  290,  874,  638,  9999,  7999, -20,  14601,  179,  2210
  98460,  305,  305,  280,  910,  546,  8999,  6999, -31,  14581, -1093,  188
  98541,  305,  305,  331,  983,  495,  8999,  6999, -35,  15510, -2167, -825
  98622,  305,  305,  458,  1124,  464,  8999,  6999, -35,  16086, -2957, -2616
  98703,  305,  305,  388,  1749,  458,  8999,  6999, -35,  16353, -4672, -4980
  98784,  305,  305,  319,  4173,  451,  8999,  6999, -35,  16728, -2390, -1121
  98865,  305,  305,  280,  3010,  481,  8999,  6999, -35,  16360, -1992, -49
  98946,  305,  305,  275,  1292,  584,  8999,  6999, -27,  16465, -2038, -1750
  99026,  305,  305,  306,  1073,  803,  9999,  9999, -2,  16250, -2534, -1419
  99107,  305,  305,  282,  799,  1503,  9999,  9999, -7,  16591, -634,  5286
  99188,  305,  305,  332,  718,  3541,  9999,  9999, -1,  10996,  705,  3955
  99269,  305,  305,  382,  626,  3532,  9999,  9999,  1,  4557, -1592, -3304
  99350,  305,  305,  417,  617,  3472,  9999,  9999,  2,  2199, -281, -1682
  99431,  305,  305,  440,  464,  3373,  9999,  9999,  2,  925, -1100, -1328
  99512,  305,  305,  371,  435,  3280,  9999,  9999,  0, -780, -434,  1823
  99593,  305,  305,  336,  413,  3170,  9999,  9999, -2, -1423, -463, -1259
  99674,  305,  305,  360,  394,  3047,  9999,  9999,  0, -639,  150, -2091
  99755,  305,  305,  378,  377,  2961,  9999,  9999,  0,  239, -4258, -1105
  99836,  305,  305,  406,  358,  2883,  9999,  9999,  1,  741, -842, -839
  99917,  305,  305,  436,  330,  2786,  9999,  9999,  2,  620,  1328,  1554
  99998,  305,  305,  468,  304,  2698,  9999,  9999,  4,  336,  819, -2360
  100079,  305,  305,  496,  282,  2600,  9999,  9999,  5, -732,  470,  311
  100160,  305,  305,  510,  257,  2500,  9999,  9999,  6, -1818,  706,  1046
  100241,  305,  305,  496,  198,  2381,  9999,  9999,  9, -2530,  1494, -1565
  100322,  305,  275,  475,  216,  2263,  9999,  9999,  7, -4138,  1558, -3555
  100403,  305,  266,  443,  249,  2133,  9999,  9999,  5, -5684,  147,  48
  100484,  305,  196,  402,  304,  2026,  7999,  9999,  15, -5590,  3275, -732
  100565,  305,  233,  356,  383,  1586,  9999,  9999, -6, -7096,  3218, -2250
  100646,  305,  276,  306,  524,  1081,  9999,  9999, -8, -7366,  2525, -1288
  100727,  305,  305,  249,  1210,  739,  9999,  9999, -7, -4465, -2649, -2131
  100808,  274,  305,  204,  2072,  631,  9999,  6499, -21,  3679, -1134,  7
  100889,  273,  305,  177,  2002,  695,  9999,  9999, -13,  10763, -2928, -5537
  100970,  226,  305,  176,  1920,  1099,  9999,  9999, -12,  10093, -2413, -1249
  101051,  216,  305,  193,  973,  1396,  9999,  9999, -11,  9922, -3661, -1695
  101132,  214,  305,  220,  787,  1340,  9999,  9999, -5,  8878,  139,  507
  101213,  240,  305,  272,  670,  1293,  9999,  9999, -1,  8750, -1774,  1020
  101294,  253,  305,  344,  595,  1249,  9999,  9999,  1,  5576,  948, -776
  101375,  275,  298,  417,  559,  1178,  9999,  9999,  6,  2948,  1084,  533
  101456,  273,  305,  473,  548,  1098,  9999,  9999,  3,  442,  1597,  3298
  101537,  276,  305,  508,  989,  1000,  9999,  9999,  10, -3045,  273, -3017
  101618,  305,  305,  506,  1344,  880,  9999,  9999,  12, -2819, -2013, -1357
  101699,  305,  305,  496,  1247,  759,  9999,  9999, -5, -5798,  1650, -1537
  101780,  305,  305,  456,  1080,  631,  9999,  6499, -21, -8648,  3508,  2600
  101861,  305,  305,  413,  912,  517,  8999,  5499, -35,  2356, -3821, -1961
  101942,  305,  305,  442,  831,  463,  8999,  6999, -35,  13896, -4194, -4825
  102023,  305,  305,  413,  826,  446,  8999,  6999, -35,  16579, -2074, -2298
  102104,  305,  305,  327,  895,  460,  8999,  6999, -35,  16148, -3546, -782
  102185,  305,  305,  279,  968,  481,  8999,  6999, -35,  15474,  258,  974
  102266,  305,  305,  257,  1020,  428,  8999,  6999, -35,  15463, -2224,  485
  102347,  305,  305,  259,  1125,  413,  8999,  6999, -35,  16140, -2963, -3015
  102430,  305,  305,  287,  1504,  440,  8999,  6999, -35,  15904,  62, -455
  102511,  305,  305,  260,  1883,  496,  8999,  6999, -35,  16102, -3551, -3135
  102592,  305,  305,  243,  2254,  569,  8999,  6999, -28,  16656, -4876, -1410
  102673,  305,  305,  249,  2001,  621,  9999,  7999, -22,  16875, -3527, -4041
  102754,  305,  305,  283,  1331,  769,  9999,  9999, -3,  16268, -3121, -685
  102834,  305,  305,  368,  1178,  1184,  9999,  9999,  3,  14068, -678,  749
  102915,  305,  305,  373,  1076,  1322,  9999,  9999,  1,  7589,  2521,  5358
  102996,  305,  305,  371,  1004,  1291,  9999,  9999,  1, -65,  859,  264
  103077,  305,  305,  346,  951,  1171,  9999,  9999, -1, -1650, -377, -2010
  103158,  305,  305,  313,  903,  1056,  9999,  9999, -2, -1654,  2487, -192
  103239,  305,  305,  278,  850,  932,  9999,  9999, -6, -771, -615,  773
  103320,  305,  305,  245,  798,  832,  9999,  9999, -10, -392,  186,  1906
  103401,  305,  305,  216,  745,  751,  9999,  9999, -6,  2819,  375, -2723
  103482,  305,  305,  197,  686,  727,  9999,  9999, -9,  5623, -2248, -1997
  103563,  275,  305,  254,  615,  741,  9999,  9999, -7,  5951, -2549, -2499
  103644,  224,  305,  275,  540,  775,  9999,  9999, -3,  6137, -1388, -1342
  103725,  208,  305,  276,  475,  861,  9999,  9999, -3,  6183, -758, -192
  103806,  305,  305,  283,  406,  959,  9999,  9999,  6,  3555, -142, -1677
  103887,  305,  305,  250,  509,  887,  9999,  9999, -11,  2400,  2845, -278
  103968,  291,  305,  196,  4751,  786,  9999,  9999, -1, -2434,  281, -1300
  104049,  305,  305,  166,  4865,  687,  9999,  9999, -14,  3203,  776, -906
  104130,  305,  305,  148,  4644,  579,  8999,  5499, -27,  3553, -462, -2110
  104211,  167,  305,  138,  3842,  469,  8999,  6999, -35,  10388, -6648, -9926
  104292,  149,  305,  164,  4430,  385,  7999,  5999, -35,  15218, -3536, -2373
  104373,  163,  305,  236,  3440,  325,  7999,  5999, -35,  16730, -1624,  130
  104454,  220,  305,  312,  1310,  287,  7999,  5999, -35,  16409, -492, -4167
  104535,  305,  305,  234,  1031,  277,  7999,  5999, -35,  16306, -796,  802
  104616,  305,  305,  176,  971,  279,  7999,  5999, -35,  16462, -1366, -1072
  104697,  305,  305,  143,  852,  3024,  9999,  7999, -20,  17393, -210, -474
  104778,  305,  305,  133,  759,  1415,  9999,  7999, -19,  16936, -1853,  1990
  104859,  223,  305,  270,  689,  858,  9999,  9999, -1,  16041, -2482,  45
  104940,  305,  305,  1451,  638,  654,  6499,  9999,  18,  13103, -1659,  509
  105021,  305,  257,  1988,  588,  608,  6499,  9999,  24,  3724,  2978,  478
  105102,  305,  287,  2076,  511,  541,  6999,  8999,  32, -8490,  3683, -560
  105183,  305,  305,  1830,  416,  409,  6999,  8999,  35, -14694,  4949,  885
  105264,  305,  305,  1550,  347,  449,  6999,  8999,  35, -17603,  2842, -2340
  105345,  305,  305,  1293,  307,  707,  9999,  9999,  11, -16714,  6445, -2467
  105426,  305,  305,  962,  252,  2412,  7999,  9999,  16, -15504, -1080, -801
  105507,  305,  305,  605,  195,  1825,  9999,  9999,  12, -14415,  3532,  1466
  105588,  305,  305,  440,  273,  1471,  9999,  9999, -3, -11930,  2079,  1409
  105669,  305,  241,  353,  382,  1250,  9999,  9999,  9, -11870,  1112,  314
  105750,  305,  286,  299,  550,  1027,  9999,  9999, -12, -3699,  873, -1090
  105830,  305,  305,  275,  1596,  884,  9999,  9999,  0, -4783, -510, -1557
  105911,  251,  305,  252,  2391,  757,  9999,  9999, -5,  371, -793, -2695
  105992,  253,  305,  247,  2361,  672,  9999,  6499, -16,  1790,  1527, -1625
  106074,  273,  305,  253,  2193,  601,  9999,  7999, -24,  8400, -6471, -3964
  106154,  270,  305,  315,  2132,  590,  8999,  6999, -26,  11625, -5202, -3357
  106235,  305,  305,  335,  2167,  664,  9999,  7999, -17,  15466, -2421, -6891
  106316,  305,  305,  316,  1379,  710,  9999,  9999, -11,  15645, -4972, -2291
  106397,  305,  305,  324,  725,  822,  9999,  9999, -5,  13714, -2031,  981
  106478,  305,  305,  349,  570,  1384,  9999,  9999, -1,  9083, -2167,  1117
  106559,  305,  305,  378,  495,  1298,  9999,  9999,  0,  4833, -731,  1516
  106641,  305,  305,  333,  457,  1208,  9999,  9999, -3,  2416,  2393, -1933
  106721,  305,  298,  333,  431,  1123,  9999,  9999, -2,  1743,  770, -4085
  106802,  305,  288,  339,  412,  1036,  9999,  9999,  0,  1156,  585, -2370
  106883,  305,  288,  346,  396,  946,  9999,  9999, -1,  1543,  149,  3191
  106964,  305,  286,  274,  386,  849,  9999,  9999, -6,  1538, -238,  35
  107045,  305,  305,  269,  1197,  752,  9999,  9999, -6,  1977, -1021, -1720
  107126,  305,  305,  297,  1155,  662,  9999,  6499, -17,  3090, -283, -455
  107208,  290,  305,  337,  1088,  571,  8999,  6999, -28,  8557, -640, -3985
  107288,  305,  305,  432,  1032,  528,  8999,  6999, -34,  12125, -3763, -1310
  107369,  305,  305,  429,  1001,  518,  8999,  6999, -35,  14592, -1049, -1135
  107450,  305,  305,  360,  1025,  557,  8999,  6999, -30,  15623, -3707, -3407
  107531,  305,  305,  322,  983,  749,  9999,  9999, -6,  15666, -4049, -3486
  107612,  305,  305,  313,  1039,  661,  9999,  7999, -17,  14741, -1240,  77
  107693,  305,  305,  321,  1157,  593,  8999,  6999, -25,  13124, -2781, -1925
  107775,  305,  305,  436,  1227,  544,  8999,  6999, -32,  13517, -658,  157
  107855,  305,  305,  505,  1511,  522,  8999,  6999, -34,  14319, -1531, -2093
  107936,  305,  305,  414,  2962,  503,  8999,  6999, -35,  16091, -3885, -2658
  108017,  305,  305,  355,  4618,  520,  8999,  6999, -35,  16141, -1713, -598
  108098,  305,  267,  326,  565,  586,  8999,  6999, -26,  16344, -339, -1645
  108179,  305,  305,  366,  1219,  772,  9999,  9999, -3,  16192, -2529,  146
  108260,  305,  305,  322,  849,  1007,  9999,  9999, -5,  16042, -3548,  207
  108341,  305,  305,  354,  667,  2025,  9999,  9999, -2,  10056, -401,  50
  108422,  305,  305,  377,  603,  2868,  9999,  9999,  0,  4283, -1717, -1587
  108503,  305,  305,  388,  529,  3402,  9999,  9999,  0,  2220, -3661,  12
  108584,  305,  305,  390,  503,  3305,  9999,  9999,  1,  1446, -744,  528
  108665,  305,  305,  394,  484,  3201,  9999,  9999,  1,  1381, -1437, -1794
  108746,  305,  305,  318,  467,  3102,  9999,  9999, -4,  563, -10, -1996
  108827,  305,  305,  292,  447,  3015,  9999,  9999, -5,  1127, -247, -2747
  108908,  305,  305,  314,  425,  2934,  9999,  9999, -3,  1724,  75, -2615
  108989,  305,  305,  344,  400,  2868,  9999,  9999, -1,  2418, -3384,  335
  109069,  305,  305,  389,  368,  2802,  9999,  9999,  2,  2561, -687,  2894
  109150,  305,  297,  438,  331,  2721,  9999,  9999,  4,  1901,  53, -613
  109231,  305,  305,  481,  298,  2634,  9999,  9999,  4, -121, -622, -3255
  109312,  305,  305,  513,  274,  2530,  9999,  9999,  5, -2286,  4252, -4
  109393,  305,  305,  499,  209,  2412,  9999,  9999,  9, -2232, -327, -2247
  109474,  305,  305,  485,  210,  2304,  9999,  9999,  4, -2491,  185,  960
  109555,  305,  278,  462,  233,  2185,  9999,  9999,  6, -5088,  1120, -799
  109636,  305,  194,  426,  276,  2050,  6499,  9999,  17, -5741,  1138,  328
  109717,  305,  221,  383,  336,  1977,  9999,  9999, -2, -7485,  4415, -428
  109798,  305,  268,  328,  446,  1247,  9999,  9999, -8, -9086, -829, -1469
  109879,  305,  305,  269,  821,  847,  9999,  9999, -9, -4082,  727, -184
  109960,  274,  305,  227,  1891,  756,  9999,  9999, -5,  3508, -2543, -825
  110041,  305,  305,  204,  2142,  802,  9999,  9999, -7,  5788,  792, -857
  110122,  276,  305,  192,  2005,  969,  9999,  9999, -12,  5432, -139, -922
  110203,  227,  305,  183,  1950,  1161,  9999,  9999, -12,  4983, -2603, -4
  110284,  207,  305,  177,  1808,  1301,  9999,  9999, -8,  6835, -2451, -2689
  110365,  192,  305,  192,  1933,  1225,  9999,  9999, -5,  7577, -686, -836
  110446,  189,  305,  227,  1648,  1162,  9999,  9999, -2,  6732, -234,  243
  110527,  197,  305,  272,  1579,  1100,  9999,  9999,  1,  4141, -3019, -2862
  110608,  223,  305,  315,  1536,  1016,  9999,  9999,  4,  2664,  345,  44
  110689,  270,  305,  356,  1480,  928,  9999,  9999,  5,  527, -1995, -1852
  110770,  290,  305,  378,  1360,  828,  9999,  9999,  3, -913,  1073, -950
  110851,  305,  305,  382,  1243,  718,  9999,  9999, -10, -2831, -741,  2198
  110932,  305,  305,  375,  1104,  611,  9999,  6499, -23, -3100,  2439, -1385
  111013,  305,  305,  376,  979,  519,  8999,  6999, -35,  8839, -2629, -4111
  111094,  270,  305,  436,  922,  476,  8999,  6999, -35,  13811, -5662, -3833
  111175,  305,  305,  371,  948,  469,  8999,  6999, -35,  14804, -3553, -2436
  111256,  305,  305,  309,  1026,  516,  8999,  6999, -35,  15927, -2167, -4285
  111337,  305,  305,  274,  1068,  487,  8999,  6999, -35,  15663, -1060,  846
  111418,  305,  305,  266,  1171,  464,  8999,  6999, -35,  15469, -2087, -2072
  111499,  305,  305,  283,  1466,  479,  8999,  6999, -35,  16106, -4051, -2945
  111582,  305,  305,  318,  1831,  522,  8999,  6999, -34,  16017, -2573, -2956
  111663,  305,  305,  290,  2235,  639,  9999,  7999, -20,  16252, -3077, -2198
  111745,  305,  305,  287,  2238,  667,  9999,  7999, -16,  17058, -2661, -771
  111825,  305,  305,  311,  1396,  770,  9999,  9999, -3,  16544, -1501, -472
  111906,  305,  305,  365,  1214,  920,  9999,  9999,  2,  11903, -1625,  1435
  111987,  305,  305,  425,  1108,  1205,  9999,  9999,  4,  4677,  2318,  2211
  112068,  305,  305,  373,  1051,  1154,  9999,  9999,  0, -1317, -929, -869
  112149,  305,  305,  332,  1015,  1023,  9999,  9999, -2, -2227,  447, -2575
  112230,  305,  305,  287,  984,  885,  9999,  9999, -5, -1622,  1090, -34
  112311,  305,  305,  243,  951,  773,  9999,  9999, -3,  15, -1421, -462
  112392,  305,  305,  200,  910,  702,  9999,  9999, -12,  2368,  680,  1970
  112473,  305,  305,  163,  860,  642,  9999,  6499, -19,  3032, -4493, -2449
  112554,  255,  305,  134,  791,  669,  9999,  7999, -16,  10900, -948, -4969
  112635,  185,  305,  131,  709,  671,  9999,  7999, -16,  13118, -969, -3372
  112716,  161,  305,  233,  633,  898,  9999,  9999, -2,  13878, -4915, -2307
  112797,  166,  305,  294,  565,  1179,  9999,  9999,  1,  11222, -119,  708
  112877,  305,  305,  350,  494,  1072,  6499,  9999,  17,  5879, -181,  763
  112958,  305,  305,  339,  420,  968,  9999,  9999, -7, -2530,  214, -4815
  113039,  305,  305,  276,  340,  884,  9999,  9999, -7, -6279,  883,  5184
  113120,  305,  305,  234,  1792,  803,  9999,  9999, -4, -5303, -173, -2571
  113201,  305,  305,  196,  4923,  709,  9999,  9999, -11,  2713, -1118, -2195
  113282,  305,  305,  179,  4434,  606,  9999,  6499, -24,  4386, -551, -2141
  113364,  203,  305,  173,  3738,  500,  8999,  6999, -35,  11932, -7309, -5268
  113444,  192,  305,  205,  3876,  401,  8999,  6999, -35,  14890, -4108, -5631
  113525,  215,  305,  290,  2335,  338,  7999,  5999, -35,  16065, -3975, -4600
  113606,  305,  305,  338,  1187,  314,  7999,  5999, -35,  16433, -2239, -599
  113687,  305,  305,  246,  994,  286,  7999,  5999, -35,  16269, -2376, -2318
  113768,  305,  305,  188,  918,  2207,  9999,  7999, -15,  16491, -4491, -2067
  113849,  305,  305,  157,  798,  3001,  9999,  7999, -19,  15698, -4988, -2016
  113931,  305,  305,  142,  711,  1278,  9999,  7999, -19,  15451, -232,  2259
  114011,  261,  305,  478,  643,  803,  9999,  9999,  13,  15046, -1247,  91
  114092,  305,  268,  1596,  580,  585,  5499,  8999,  26,  13437, -1333,  2338
  114173,  305,  286,  1923,  521,  563,  5499,  8999,  29,  1167,  2384, -5508
  114254,  305,  297,  1939,  450,  467,  6999,  8999,  35, -10317,  6392,  1853
  114335,  305,  305,  1719,  375,  363,  5999,  7999,  35, -15350,  4366, -23
  114416,  305,  305,  1433,  316,  487,  6999,  8999,  35, -16974,  3315, -5189
  114498,  305,  305,  1199,  291,  2182,  7999,  9999,  16, -16817,  6479, -2719
  114578,  305,  305,  747,  197,  2294,  7999,  9999,  17, -16382,  5005, -268
  114659,  305,  305,  478,  229,  1606,  9999,  9999,  1, -16539,  3256, -5056
  114740,  305,  276,  335,  370,  1287,  9999,  9999, -2, -13468,  1178,  4555
  114821,  305,  289,  265,  542,  1069,  9999,  9999, -9, -4933, -2960, -801
  114902,  305,  305,  241,  1117,  953,  9999,  9999, -7,  1079, -4010, -2645
  114983,  226,  305,  248,  2454,  881,  9999,  9999, -5,  4865,  20,  1226
  115064,  240,  305,  281,  2101,  847,  9999,  9999,  2,  5346, -1803, -1723
  115145,  279,  305,  331,  1555,  819,  9999,  9999,  4,  5230, -1491, -483
  115226,  305,  305,  410,  1824,  759,  9999,  9999, -5,  982,  852, -1691
  115307,  305,  305,  391,  2201,  661,  9999,  6499, -17, -1660,  1078, -1955
  115388,  305,  305,  329,  2003,  571,  8999,  5499, -28,  6097, -6008, -3327
  115469,  305,  305,  283,  1917,  530,  8999,  6999, -33,  14788, -2087, -6515
  115549,  305,  305,  268,  1647,  673,  9999,  7999, -15,  15438, -1433, -2042
  115630,  305,  305,  286,  732,  838,  9999,  9999, -9,  16139, -4055, -1154
  115711,  305,  305,  334,  548,  1279,  9999,  9999,  0,  13557, -191,  896
  115792,  305,  305,  328,  450,  1242,  9999,  9999, -2,  8824, -1987,  1892
  115873,  305,  297,  380,  392,  1181,  9999,  9999,  2,  2535, -2303, -1202
  115954,  305,  287,  417,  355,  1095,  9999,  9999,  4,  1301, -449, -954
  116035,  305,  288,  365,  325,  1010,  9999,  9999, -1,  189, -100, -1066
  116116,  305,  280,  350,  301,  909,  9999,  9999,  0, -1636,  2400, -3369
  116197,  305,  280,  366,  286,  798,  9999,  9999,  0, -1513,  896, -312
  116278,  305,  305,  383,  1100,  697,  9999,  9999, -12, -1084, -1356, -1153
  116359,  305,  305,  402,  1066,  596,  8999,  5499, -25, -247,  1175,  1548
  116440,  305,  305,  433,  993,  506,  8999,  6999, -35,  8572, -3284, -7475
  116521,  305,  305,  445,  935,  477,  8999,  6999, -35,  13930, -3588, -2894
  116602,  305,  305,  355,  912,  480,  8999,  6999, -35,  14658, -2094, -749
  116683,  305,  305,  301,  940,  692,  9999,  9999, -13,  15719, -2674, -3443
  116764,  305,  305,  274,  904,  644,  9999,  7999, -19,  13521, -3659, -243
  116845,  305,  305,  264,  941,  558,  8999,  6999, -30,  13728, -5318, -535
  116926,  305,  305,  299,  1021,  499,  8999,  6999, -35,  14567, -4980, -2833
  117007,  305,  305,  447,  1154,  470,  8999,  6999, -35,  15689, -1582,  1338
  117088,  305,  305,  398,  1690,  461,  8999,  6999, -35,  15909, -4078, -2419
  117169,  305,  305,  326,  4020,  456,  8999,  6999, -35,  16103, -2078, -2534
  117250,  305,  305,  285,  2702,  482,  8999,  6999, -35,  16299, -2006, -3612
  117331,  305,  305,  270,  1332,  563,  8999,  6999, -29,  16153, -3934, -4007
  117412,  305,  305,  319,  1130,  804,  9999,  9999,  1,  16722, -2110, -2157
  117493,  305,  305,  281,  834,  1288,  9999,  9999, -8,  16496,  1664,  1086
  117574,  305,  305,  325,  710,  3155,  9999,  9999, -1,  11334,  1966,  2769
  117655,  305,  305,  374,  626,  3537,  9999,  9999,  0,  6169,  940,  3088
  117736,  305,  305,  411,  594,  3481,  9999,  9999,  2,  2550,  2260, -1819
  117817,  305,  305,  435,  480,  3401,  9999,  9999,  2, -115, -1652, -788
  117897,  305,  305,  395,  440,  3301,  9999,  9999,  1, -60,  628, -341
  117978,  305,  305,  333,  416,  3186,  9999,  9999, -3,  311, -328, -1672
  118059,  305,  305,  360,  398,  3065,  9999,  9999,  0, -818,  829, -2960
  118140,  305,  305,  386,  377,  2992,  9999,  9999,  0,  438,  658, -2149
  118221,  305,  305,  416,  354,  2908,  9999,  9999,  2,  1153, -2899, -672
  118302,  305,  305,  453,  324,  2835,  9999,  9999,  3,  1509,  1753,  217
  118384,  305,  298,  495,  294,  2737,  9999,  9999,  7, -453,  560, -2141
  118464,  305,  298,  522,  267,  2638,  9999,  9999,  6, -1132, -403, -3792
  118545,  305,  298,  536,  249,  2521,  9999,  9999,  6, -3830,  185,  1671
  118626,  305,  286,  505,  196,  2390,  9999,  9999,  10, -4207,  1130, -605
  118707,  305,  278,  473,  211,  2274,  9999,  9999,  5, -4136,  1564, -3256
  118788,  305,  257,  437,  255,  2154,  9999,  9999,  5, -6015,  2398, -1251
  118869,  305,  193,  393,  323,  1916,  9999,  9999,  14, -5989,  1858, -127
  118951,  305,  233,  347,  410,  1413,  9999,  9999, -6, -3979, -1035, -2096
  119031,  305,  287,  299,  549,  1021,  9999,  9999, -12, -8331,  1873, -1093
  119112,  305,  305,  243,  1355,  703,  9999,  9999, -12, -4688, -3216, -3537
  119193,  270,  305,  198,  2067,  627,  9999,  6499, -21,  4774, -1696, -4137
  119274,  269,  305,  176,  2030,  765,  9999,  9999, -4,  13014, -3186, -4165
  119355,  236,  305,  191,  1317,  1515,  9999,  9999, -11,  12551, -1678,  410
  119436,  228,  305,  222,  756,  1425,  9999,  9999, -8,  7107,  631, -214
  119518,  259,  305,  252,  678,  1364,  9999,  9999, -1,  5876, -2085, -133
  119598,  253,  305,  293,  634,  1303,  9999,  9999, -3,  6915,  1064,  3636
  119679,  276,  286,  350,  588,  1244,  9999,  9999,  7,  2679,  1273, -1302
  119760,  269,  305,  399,  576,  1171,  9999,  9999, -3,  1582,  1312, -3427
  119841,  272,  305,  435,  600,  1067,  9999,  9999,  4, -2103,  2485, -1899
  119922,  272,  305,  444,  1441,  958,  9999,  9999,  10, -870, -1207, -1188
  120003,  274,  305,  452,  1339,  855,  9999,  9999,  4, -1253, -156,  521
  120084,  280,  305,  449,  1250,  737,  9999,  9999, -7, -5439, -220,  2050
  120165,  289,  305,  420,  1065,  622,  9999,  6499, -22, -5051,  974, -2279
  120246,  305,  305,  402,  934,  527,  8999,  5499, -34,  5609, -7922, -6452
  120326,  305,  305,  457,  866,  479,  8999,  6999, -35,  15242, -3331, -5867
  120407,  305,  305,  400,  890,  472,  8999,  6999, -35,  15716, -1759,  538
  120488,  305,  305,  328,  973,  515,  8999,  6999, -35,  15848, -2933, -1580
  120569,  305,  305,  288,  1013,  486,  8999,  6999, -35,  15645, -1933, -1850
  120650,  305,  305,  275,  1091,  448,  8999,  6999, -35,  15371, -3777, -2969
  120731,  305,  305,  286,  1251,  456,  8999,  6999, -35,  15842, -1641, -2947
  120814,  305,  305,  314,  1696,  493,  8999,  6999, -35,  16448, -2409, -3512
  120895,  305,  305,  280,  2104,  599,  8999,  6999, -25,  16706, -2080, -925
  120976,  305,  305,  272,  2325,  626,  9999,  7999, -21,  17143, -838, -1075
  121057,  305,  305,  293,  1545,  720,  9999,  9999, -10,  16468, -2949,  328
  121138,  305,  305,  347,  1233,  899,  9999,  9999,  1,  14436, -4026,  2132
  121220,  305,  305,  417,  1101,  1311,  9999,  9999,  4,  7755,  1691,  2095
  121300,  305,  305,  389,  1026,  1284,  9999,  9999,  2,  1997,  638,  264
  121381,  305,  305,  361,  974,  1206,  9999,  9999,  0, -2583,  1660, -1606
  121462,  305,  305,  322,  932,  1112,  9999,  9999, -3, -1898, -503, -1518
  121543,  305,  305,  281,  891,  987,  9999,  9999, -6, -1426,  2035,  1108
  121624,  305,  305,  242,  851,  877,  9999,  9999, -10,  1030, -3213, -1068
  121705,  305,  305,  209,  799,  814,  9999,  9999, -13,  3153,  837, -627
  121787,  305,  305,  183,  732,  678,  9999,  7999, -15,  6748, -4333, -2208
  121867,  274,  305,  181,  663,  702,  9999,  9999, -12,  9840, -217, -3885
  121948,  217,  305,  273,  590,  829,  9999,  9999, -4,  9540, -1435, -858
  122029,  206,  305,  291,  520,  1055,  9999,  9999, -2,  9592, -2738, -1591
  122110,  305,  305,  321,  444,  1047,  9999,  9999,  10,  4430,  1035, -569
  122191,  305,  305,  310,  372,  945,  9999,  9999, -7,  1817,  815, -214
  122272,  305,  305,  249,  297,  835,  9999,  9999, -9, -4067,  966, -2029
  122353,  288,  305,  213,  3683,  748,  9999,  9999, -6, -3525, -5304, -4807
  122433,  305,  305,  184,  4386,  643,  9999,  6499, -19,  4782, -3623, -3799
  122514,  224,  305,  177,  4316,  537,  8999,  6999, -32,  8909, -3264, -5851
  122595,  200,  305,  195,  4024,  449,  8999,  6999, -35,  12947, -953, -1145
  122676,  214,  305,  252,  3650,  371,  7999,  5999, -35,  15173, -3491, -1605
  122757,  305,  305,  346,  1338,  321,  7999,  5999, -35,  16264, -1498, -1291
  122838,  305,  305,  282,  1023,  299,  7999,  5999, -35,  16379, -2960, -877
  122919,  305,  305,  212,  970,  294,  7999,  5999, -35,  16796, -802, -1902
  123000,  305,  305,  172,  844,  2915,  9999,  7999, -17,  16923, -3883,  671
  123081,  305,  305,  155,  739,  3005,  9999,  7999, -18,  16429, -3406,  282
  123162,  305,  305,  362,  667,  958,  9999,  9999,  11,  16063, -3768, -713
  123243,  305,  305,  1240,  610,  612,  6499,  9999,  23,  12192, -224,  324
  123324,  305,  268,  1842,  549,  572,  5499,  8999,  28, -211,  795, -5720
  123405,  305,  288,  1839,  473,  485,  6999,  8999,  35, -12428,  5225, -2076
  123486,  305,  305,  1623,  400,  462,  6999,  8999,  35, -14516,  6869,  633
  123567,  305,  305,  1346,  356,  663,  7999,  9999,  17, -17752,  3643,  1070
  123648,  305,  305,  967,  324,  2484,  7999,  9999,  15, -17239,  4698, -660
  123729,  290,  305,  537,  231,  1858,  9999,  9999,  8, -17147,  504, -683
  123810,  305,  305,  366,  302,  1481,  9999,  9999, -4, -12135,  2046, -2007
  123891,  305,  286,  293,  409,  1282,  9999,  9999, -4, -7848,  2549, -2286
  123972,  305,  305,  259,  532,  1108,  9999,  9999, -11, -628,  1516, -1564
  124052,  196,  305,  266,  612,  1032,  9999,  9999, -13,  2972, -3162, -2069
  124133,  215,  305,  303,  736,  1002,  9999,  9999,  6,  6335, -723,  2709
  124214,  291,  305,  374,  722,  1019,  9999,  9999,  10,  8462, -750, -205
  124295,  305,  305,  497,  657,  920,  9999,  9999,  4,  998,  2957, -1099
  124376,  305,  305,  473,  765,  787,  9999,  9999, -1, -5014,  149, -345
  124457,  305,  305,  409,  1498,  717,  9999,  9999, -10, -3586, -833, -3139
  124539,  305,  305,  343,  1954,  587,  8999,  5499, -26,  361, -2350, -2866
  124619,  305,  305,  284,  1840,  534,  8999,  6999, -33,  7899,  1430, -5752
  124700,  305,  305,  247,  1779,  484,  8999,  6999, -35,  14400, -2705, -1652
  124781,  305,  305,  239,  1830,  654,  9999,  7999, -18,  15260, -5506, -6860
  124862,  305,  305,  257,  771,  899,  9999,  9999, -11,  16526, -2424,  301
  124943,  305,  305,  264,  554,  1168,  9999,  9999, -6,  13634, -3128,  1049
  125024,  305,  305,  308,  452,  1138,  9999,  9999, -3,  8181, -596,  79
  125106,  305,  305,  384,  384,  1089,  9999,  9999,  1,  5272, -343, -546
  125186,  305,  286,  340,  331,  1030,  9999,  9999,  1,  3551, -85, -1825
  125267,  305,  288,  402,  288,  955,  9999,  9999,  2,  2349, -1272, -1702
  125348,  305,  286,  477,  248,  866,  9999,  9999,  7,  249,  498, -381
  125429,  305,  305,  542,  295,  769,  9999,  9999,  3, -57,  855, -1894
  125510,  305,  305,  596,  1136,  661,  9999,  6499, -17, -3464,  2890, -4190
  125591,  305,  305,  539,  998,  551,  8999,  5499, -31, -231, -4225, -3991
  125672,  305,  305,  443,  913,  479,  8999,  5499, -35,  6332, -7735, -7232
  125753,  305,  305,  361,  867,  475,  8999,  6999, -35,  16753, -4456, -4954
  125834,  305,  305,  306,  891,  712,  9999,  9999, -11,  17359, -6048, -656
  125914,  305,  305,  284,  885,  610,  9999,  7999, -23,  16519, -4690, -11
  125995,  305,  305,  284,  946,  539,  8999,  6999, -32,  14876, -4841, -1486
  126076,  305,  305,  389,  1054,  479,  8999,  6999, -35,  15298, -3817, -1824
  126157,  305,  305,  456,  1175,  458,  8999,  6999, -35,  15648, -3585, -2068
  126238,  305,  305,  366,  2240,  533,  8999,  6999, -33,  15716, -2462, -2342
  126319,  305,  305,  306,  4825,  452,  8999,  6999, -35,  16296, -1325, -142
  126400,  305,  305,  273,  2669,  492,  8999,  6999, -35,  16344, -3991,  161
  126481,  305,  305,  309,  1378,  600,  9999,  7999, -25,  16118, -814,  420
  126562,  305,  305,  265,  1013,  773,  9999,  9999, -3,  16242, -6561, -3286
  126643,  305,  305,  286,  773,  1769,  9999,  9999, -5,  15070, -1299,  1585
  126724,  305,  305,  333,  670,  3523,  9999,  9999, -1,  6695,  856,  138
  126805,  305,  305,  367,  606,  3481,  9999,  9999,  0,  4410, -592, -1679
  126886,  305,  305,  394,  504,  3404,  9999,  9999,  1,  2141,  459, -1150
  126967,  305,  305,  407,  472,  3317,  9999,  9999,  1,  1648, -1822, -897
  127048,  291,  305,  327,  441,  3221,  9999,  9999, -5,  564, -641, -899
  127129,  305,  305,  340,  411,  3120,  9999,  9999,  1,  936, -298, -1422
  127210,  305,  305,  384,  383,  3056,  9999,  9999,  0,  1950, -602, -1897
  127291,  305,  305,  439,  350,  2993,  9999,  9999,  2,  1515, -88, -2756
  127372,  305,  305,  491,  312,  2924,  9999,  9999,  4,  1113,  635, -1701
  127453,  305,  305,  543,  280,  2833,  9999,  9999,  6,  273, -1780, -4741
  127534,  305,  298,  591,  249,  2741,  9999,  9999,  10, -952,  1343, -591
  127615,  305,  305,  591,  224,  2601,  9999,  9999,  8, -3407, -854, -2637
  127695,  305,  276,  563,  197,  2459,  9999,  9999,  12, -5983,  2809, -3480
  127776,  305,  249,  518,  168,  2322,  9999,  9999,  12, -6629,  1821,  1891
  127858,  305,  240,  468,  214,  2192,  9999,  9999,  6, -7777,  778, -2772
  127938,  305,  169,  410,  294,  1861,  7999,  9999,  18, -8641,  2704, -624
  128019,  305,  215,  350,  425,  1217,  9999,  9999, -7, -9258,  4714, -2601
  128100,  305,  305,  288,  713,  748,  9999,  9999, -6, -9794,  2628,  2734
  128181,  305,  305,  226,  2061,  521,  8999,  5499, -34, -5258, -2317, -4320
  128262,  291,  305,  171,  2054,  452,  8999,  6999, -35,  6968,  2024, -4211
  128343,  305,  305,  143,  1995,  498,  8999,  6999, -35,  12900, -3256, -2175
  128425,  213,  305,  145,  2010,  801,  9999,  7999, -15,  16426, -3851, -3091
  128505,  190,  305,  182,  956,  1512,  9999,  9999, -11,  17826, -3120, -70
  128586,  211,  305,  247,  610,  1515,  9999,  9999, -1,  13780,  505, -348
  128667,  251,  305,  345,  472,  1523,  9999,  9999,  4,  8250,  462, -478
  128748,  305,  305,  454,  414,  1485,  9999,  9999,  10,  2504,  432,  841
  128829,  269,  305,  520,  402,  1400,  9999,  9999, -1, -2534,  3152,  145
  128910,  275,  305,  532,  432,  1266,  9999,  9999,  7, -6246,  3031,  319
  128992,  291,  305,  501,  498,  1133,  9999,  9999,  7, -3853,  202, -1595
  129072,  305,  305,  484,  996,  1025,  9999,  9999,  9, -2658,  1514, -1102
  129153,  305,  305,  474,  1343,  890,  9999,  9999,  5, -4886,  260, -464
  129234,  305,  305,  440,  1223,  771,  9999,  9999, -3, -4205,  546, -1309
  129315,  305,  305,  407,  1059,  660,  9999,  6499, -17, -5509,  1987, -1232
  129396,  305,  305,  377,  936,  560,  8999,  5499, -30,  5079,  3146, -3820
  129477,  305,  305,  407,  864,  498,  8999,  6999, -35,  14601, -5957, -2276
  129558,  305,  305,  458,  856,  475,  8999,  6999, -35,  15237, -1767, -2447
  129638,  305,  305,  372,  903,  478,  8999,  6999, -35,  15830, -3394, -1164
  129719,  305,  305,  313,  976,  492,  8999,  6999, -35,  15794, -2862, -2451
  129800,  305,  305,  281,  1017,  460,  8999,  6999, -35,  16359, -3395, -945
  129881,  305,  305,  278,  1122,  447,  8999,  6999, -35,  16996, -1466,  352
  129964,  305,  305,  305,  1422,  468,  8999,  6999, -35,  16549, -1186,  1605
  130045,  305,  305,  296,  1809,  520,  8999,  6999, -35,  16562, -1369, -1334
  130127,  305,  305,  273,  2233,  599,  8999,  6999, -25,  16378, -3001, -3181
  130207,  305,  305,  277,  2035,  655,  9999,  7999, -18,  16761, -3113, -399
  130288,  305,  305,  314,  1332,  793,  9999,  9999,  0,  16769, -926,  718
  130369,  305,  305,  403,  1166,  1181,  9999,  9999,  4,  13715, -1032,  1486
  130450,  305,  305,  401,  1056,  1357,  9999,  9999,  3,  5637, -1712,  445
  130531,  305,  305,  389,  994,  1231,  9999,  9999,  1, -2106,  4008,  1506
  130612,  305,  305,  353,  949,  1155,  9999,  9999,  0, -1550,  158, -261
  130694,  305,  305,  315,  904,  1076,  9999,  9999, -3, -2045, -152, -739
  130774,  305,  305,  274,  864,  963,  9999,  9999, -7, -1520, -2012, -3293
  130855,  305,  305,  235,  822,  863,  9999,  9999, -11,  1343, -2711,  188
  130936,  305,  305,  204,  767,  780,  9999,  9999, -2,  4262, -1201,  1336
  131017,  305,  305,  184,  698,  682,  9999,  9999, -14,  6388, -608, -1502
  131098,  253,  305,  218,  627,  667,  9999,  6499, -16,  3349,  612, -1082
  131179,  207,  305,  249,  562,  677,  9999,  7999, -15,  11378, -7810, -7207
  131260,  186,  305,  262,  497,  909,  9999,  9999, -4,  11944, -2899,  791
  131341,  305,  305,  307,  425,  1011,  9999,  9999,  11,  10969, -5523, -62
  131422,  305,  305,  285,  355,  900,  9999,  9999, -10,  5563,  216, -70
  131503,  305,  305,  284,  275,  791,  9999,  9999,  1, -3428,  4160, -1576
  131584,  305,  305,  262,  3009,  696,  9999,  9999, -13, -2022,  2177,  1100
  131664,  305,  305,  242,  4960,  600,  9999,  6499, -25,  1978, -825, -2844
  131745,  305,  305,  238,  4310,  498,  8999,  6999, -35,  13191, -5644, -6262
  131826,  288,  305,  292,  3416,  423,  8999,  6999, -35,  15376, -4063, -7946
